{
    "resourceType": "Bundle",
    "id": "001578f8-0b76-4197-afd9-ludger7516e47",
    "meta": {
        "profile": [
            "https://fhir.kbv.de/StructureDefinition/KBV_PR_MIO_Vaccination_Bundle_Entry|1.1.0"
        ],
        "lastUpdated": "2019-12-24T12:30:02Z"
    },
    "identifier": {
        "system": "urn:ietf:rfc:3986",
        "value": "001578f8-0b76-4197-afd9-ludger7516e47"
    },
    "type": "document",
    "timestamp": "2019-12-23T12:30:02Z",
    "entry": [
        {
            "fullUrl": "Composition:urn:uuid:6d92d417-8a0d-42b9-959f-567ab2f4650f",
            "resource": {
                "resourceType": "Composition",
                "id": "6d92d417-8a0d-42b9-959f-567ab2f4650f",
                "meta": {
                    "profile": [
                        "https://fhir.kbv.de/StructureDefinition/KBV_PR_MIO_Vaccination_Composition_Prime|1.1.0"
                    ]
                },
                "status": "final",
                "type": {
                    "coding": [
                        {
                            "system": "http://loinc.org",
                            "code": "11369-6",
                            "display": "History of Immunization Narrative"
                        }
                    ]
                },
                "subject": {
                    "reference": "urn:uuid:9774f67f-a238-4daf-b4e6-679deeef3811"
                },
                "date": "2018-07-01T12:30:02Z",
                "author": [
                    {
                        "reference": "urn:uuid:a24c9cd2-c55e-4859-8d41-db419fc9f6b1"
                    }
                ],
                "title": "Impfeintrag-/einträge Nach-/Übertrag",
                "section": [
                    {
                        "code": {
                            "coding": [
                                {
                                    "system": "http://snomed.info/sct",
                                    "version": "http://snomed.info/sct/900000000000207008/version/20210131",
                                    "code": "243796009:363589002=121258006",
                                    "display": "Situation with explicit context (situation) : Associated procedure (attribute) = Procedure to identify antibody (procedure)"
                                }
                            ]
                        },
                        "entry": [
                            {
                                "reference": "Observation:urn:uuid:2f66c2df-1df9-43cf-bf2a-6da2f1f9c222"
                            }
                        ]
                    },
                    {
                        "code": {
                            "coding": [
                                {
                                    "system": "http://snomed.info/sct",
                                    "version": "http://snomed.info/sct/900000000000207008/version/20210131",
                                    "code": "161413004:363589002=35123003",
                                    "display": "History of infectious disease (situation) : Associated procedure (attribute) = Active immunity, function (observable entity)"
                                }
                            ]
                        },
                        "entry": [
                            {
                                "reference": "Condition:urn:uuid:156c96ec-02ca-4770-94e9-b11d2237513d"
                            }
                        ],
                        "section": [
                            {
                                "entry": [
                                    {
                                        "reference": "Provenance:urn:uuid:a2108e08-32ca-4f22-985c-6f0279f5c89c"
                                    }
                                ]
                            }
                        ]
                    }
                ]
            }
        },
        {
            "fullUrl": "Observation:urn:uuid:2f66c2df-1df9-43cf-bf2a-6da2f1f9c222",
            "resource": {
                "resourceType": "Observation",
                "id": "2f66c2df-1df9-43cf-bf2a-6da2f1f9c222",
                "meta": {
                    "profile": [
                        "https://fhir.kbv.de/StructureDefinition/KBV_PR_MIO_Vaccination_Observation_Immunization_Status|1.1.0"
                    ]
                },
                "text": {
                    "status": "extensions",
                    "div": "<h1>Titeruntersuchung</h1>"
                },
                "status": "final",
                "code": {
                    "coding": [
                        {
                            "system": "http://snomed.info/sct",
                            "version": "http://snomed.info/sct/900000000000207008/version/20210131",
                            "code": "363787002:246093002=259858000,370134009=123029007,370132008=117363000,704319004=50863008,370130000=705057003,704327008=119364003",
                            "display": "Observable entity (observable entity) : Component (attribute) = Varicella-zoster virus antibody (substance) , Time aspect (attribute) = Single point in time (qualifier value) , Scale type (attribute) = Ordinal value (qualifier value) , Inheres in (attribute) = Plasma (substance) , Property (attribute) = Presence (property) (qualifier value) , Direct site (attribute) = Serum specimen (specimen)"
                        },
                        {
                            "system": "http://loinc.org",
                            "version": "2.67",
                            "code": "22600-1",
                            "display": "Varicella zoster virus Ab [Presence] in Serum"
                        }
                    ],
                    "text": "Varizellen Antikörpernachweis"
                },
                "subject": {
                    "reference": "urn:uuid:9774f67f-a238-4daf-b4e6-679deeef3811"
                },
                "issued": "2019-12-23T08:39:24+10:00",
                "interpretation": [
                    {
                        "coding": [
                            {
                                "system": "http://snomed.info/sct",
                                "version": "http://snomed.info/sct/900000000000207008/version/20200131",
                                "code": "365861007:363713009=10828004",
                                "display": "Finding of immune status (finding) : Has interpretation (attribute) = Positive (qualifier value)"
                            }
                        ],
                        "text": "Immunität erreicht"
                    }
                ],
                "note": [
                    {
                        "text": "Ergebnis zuverlässig"
                    }
                ]
            }
        },
        {
            "fullUrl": "Condition:urn:uuid:156c96ec-02ca-4770-94e9-b11d2237513d",
            "resource": {
                "resourceType": "Condition",
                "id": "156c96ec-02ca-4770-94e9-b11d2237513d",
                "meta": {
                    "profile": [
                        "https://fhir.kbv.de/StructureDefinition/KBV_PR_MIO_Vaccination_Condition|1.1.0"
                    ]
                },
                "text": {
                    "status": "extensions",
                    "div": "<div></div>"
                },
                "clinicalStatus": {
                    "coding": [
                        {
                            "system": "http://terminology.hl7.org/CodeSystem/condition-clinical",
                            "code": "resolved"
                        }
                    ]
                },
                "verificationStatus": {
                    "coding": [
                        {
                            "system": "http://terminology.hl7.org/CodeSystem/condition-ver-status",
                            "code": "confirmed"
                        }
                    ]
                },
                "code": {
                    "coding": [
                        {
                            "system": "http://snomed.info/sct",
                            "version": "http://snomed.info/sct/900000000000207008/version/20200131",
                            "code": "27836007",
                            "display": "Pertussis (disorder)"
                        },
                        {
                            "system": "http://fhir.de/CodeSystem/dimdi/icd-10-gm",
                            "version": "icd10gm2020",
                            "code": "A37.-",
                            "display": "Keuchhusten"
                        }
                    ],
                    "text": "Pertussis/Keuchhusten"
                },
                "subject": {
                    "reference": "urn:uuid:9774f67f-a238-4daf-b4e6-679deeef3811"
                },
                "onsetString": "Ältere Person/ Senioren (Mit Beginn des 65. Lebensjahres)",
                "recordedDate": "2001-10-02T06:47:12Z"
            }
        },
        {
            "fullUrl": "Patient:urn:uuid:9774f67f-a238-4daf-b4e6-679deeef3811",
            "resource": {
                "resourceType": "Patient",
                "id": "9774f67f-a238-4daf-b4e6-679deeef3811",
                "meta": {
                    "profile": [
                        "https://fhir.kbv.de/StructureDefinition/KBV_PR_MIO_Vaccination_Patient|1.1.0"
                    ]
                },
                "text": {
                    "status": "generated",
                    "div": "<div xmlns=\"http://www.w3.org/1999/xhtml\"><p>Patient: Ludger Königsstein</p></div>"
                },
                "identifier": [
                    {
                        "type": {
                            "coding": [
                                {
                                    "system": "http://terminology.hl7.org/CodeSystem/v2-0203",
                                    "code": "MR"
                                }
                            ]
                        },
                        "system": "http://www.acme.com/identifiers/patient",
                        "value": "123456"
                    },
                    {
                        "type": {
                            "coding": [
                                {
                                    "system": "http://fhir.de/CodeSystem/identifier-type-de-basis",
                                    "code": "GKV"
                                }
                            ]
                        },
                        "system": "http://fhir.de/NamingSystem/gkv/kvid-10",
                        "value": "1234567890"
                    },
                    {
                        "type": {
                            "coding": [
                                {
                                    "system": "http://terminology.hl7.org/CodeSystem/v2-0203",
                                    "code": "PPN"
                                }
                            ]
                        },
                        "system": "http://www.acme.com/identifiers/patient",
                        "value": "C01X0006H"
                    }
                ],
                "name": [
                    {
                        "use": "official",
                        "text": "Ludger Königsstein",
                        "family": "Königsstein",
                        "_family": {
                            "extension": [
                                {
                                    "url": "http://hl7.org/fhir/StructureDefinition/humanname-own-name",
                                    "valueString": "Königsstein"
                                }
                            ]
                        },
                        "given": ["Ludger"]
                    }
                ],
                "gender": "männlich",
                "birthDate": "1935-06-22"
            }
        },
        {
            "fullUrl": "Practitioner:urn:uuid:20597e0e-cb2a-45b3-95f0-dc3dbdb617c3",
            "resource": {
                "resourceType": "Practitioner",
                "id": "20597e0e-cb2a-45b3-95f0-dc3dbdb617c3",
                "meta": {
                    "profile": [
                        "https://fhir.kbv.de/StructureDefinition/KBV_PR_MIO_Vaccination_Practitioner|1.1.0"
                    ]
                },
                "identifier": [
                    {
                        "type": {
                            "coding": [
                                {
                                    "system": "http://terminology.hl7.org/CodeSystem/v2-0203",
                                    "code": "LANR"
                                }
                            ]
                        },
                        "system": "https://fhir.kbv.de/NamingSystem/KBV_NS_Base_ANR",
                        "value": "838382202"
                    }
                ],
                "name": [
                    {
                        "use": "official",
                        "family": "Topp-Glücklich",
                        "_family": {
                            "extension": [
                                {
                                    "url": "http://hl7.org/fhir/StructureDefinition/humanname-own-name",
                                    "valueString": "Topp-Glücklich"
                                }
                            ]
                        },
                        "given": ["Hans"],
                        "prefix": ["Dr. med."],
                        "_prefix": [
                            {
                                "extension": [
                                    {
                                        "url": "http://hl7.org/fhir/StructureDefinition/iso21090-EN-qualifier",
                                        "valueCode": "AC"
                                    }
                                ]
                            }
                        ]
                    }
                ],
                "telecom": [
                    {
                        "system": "phone",
                        "value": "06151/1111111"
                    }
                ],
                "qualification": [
                    {
                        "code": {
                            "coding": [
                                {
                                    "system": "https://fhir.kbv.de/CodeSystem/KBV_CS_SFHIR_BAR2_WBO",
                                    "code": "010",
                                    "display": "FA Allgemeinmedizin"
                                }
                            ],
                            "text": "FA Allgemeinmedizin"
                        }
                    }
                ]
            }
        },
        {
            "fullUrl": "Practitioner:urn:uuid:0eecc686-434d-4b8a-9009-4242377e0db6",
            "resource": {
                "resourceType": "Practitioner",
                "id": "0eecc686-434d-4b8a-9009-4242377e0db6",
                "meta": {
                    "profile": [
                        "https://fhir.kbv.de/StructureDefinition/KBV_PR_MIO_Vaccination_Practitioner|1.1.0"
                    ]
                },
                "identifier": [
                    {
                        "type": {
                            "coding": [
                                {
                                    "system": "http://terminology.hl7.org/CodeSystem/v2-0203",
                                    "code": "LANR"
                                }
                            ]
                        },
                        "system": "https://fhir.kbv.de/NamingSystem/KBV_NS_Base_ANR",
                        "value": "838382202"
                    }
                ],
                "name": [
                    {
                        "use": "official",
                        "family": "Bester",
                        "_family": {
                            "extension": [
                                {
                                    "url": "http://hl7.org/fhir/StructureDefinition/humanname-own-name",
                                    "valueString": "Bester"
                                }
                            ]
                        },
                        "given": ["Hartmut"],
                        "prefix": ["Dr. med."],
                        "_prefix": [
                            {
                                "extension": [
                                    {
                                        "url": "http://hl7.org/fhir/StructureDefinition/iso21090-EN-qualifier",
                                        "valueCode": "AC"
                                    }
                                ]
                            }
                        ]
                    }
                ],
                "qualification": [
                    {
                        "code": {
                            "coding": [
                                {
                                    "system": "https://fhir.kbv.de/CodeSystem/KBV_CS_SFHIR_BAR2_WBO",
                                    "code": "010",
                                    "display": "FA Allgemeinmedizin"
                                }
                            ],
                            "text": "FA Allgemeinmedizin"
                        }
                    }
                ]
            }
        },
        {
            "fullUrl": "PractitionerRole:urn:uuid:a24c9cd2-c55e-4859-8d41-db419fc9f6b1",
            "resource": {
                "resourceType": "PractitionerRole",
                "id": "a24c9cd2-c55e-4859-8d41-db419fc9f6b1",
                "meta": {
                    "profile": [
                        "https://fhir.kbv.de/StructureDefinition/KBV_PR_MIO_Vaccination_Practitionerrole|1.1.0"
                    ]
                },
                "practitioner": {
                    "reference": "urn:uuid:20597e0e-cb2a-45b3-95f0-dc3dbdb617c3"
                },
                "organization": {
                    "reference": "urn:uuid:cf042e44-086a-4d51-9c77-172f9a972e3b"
                }
            }
        },
        {
            "fullUrl": "PractitionerRole:urn:uuid:2f66c2df-1df9-43cf-bf2a-6da2a1a9c9e2",
            "resource": {
                "resourceType": "PractitionerRole",
                "id": "2f66c2df-1df9-43cf-bf2a-6da2a1a9c9e2",
                "meta": {
                    "profile": [
                        "https://fhir.kbv.de/StructureDefinition/KBV_PR_MIO_Vaccination_Practitionerrole|1.1.0"
                    ]
                },
                "practitioner": {
                    "reference": "urn:uuid:0eecc686-434d-4b8a-9009-4242377e0db6"
                },
                "organization": {
                    "reference": "urn:uuid:cf042e44-086a-4d51-9c77-172f9a972e3b"
                }
            }
        },
        {
            "fullUrl": "Organization:urn:uuid:cf042e44-086a-4d51-9c77-172f9a972e3b",
            "resource": {
                "resourceType": "Organization",
                "id": "cf042e44-086a-4d51-9c77-172f9a972e3b",
                "meta": {
                    "profile": [
                        "https://fhir.kbv.de/StructureDefinition/KBV_PR_MIO_Vaccination_Organization|1.1.0"
                    ]
                },
                "name": "Dr. med. Hans Topp-Glücklich",
                "identifier": [
                    {
                        "type": {
                            "coding": [
                                {
                                    "system": "http://terminology.hl7.org/CodeSystem/v2-0203",
                                    "code": "BSNR"
                                }
                            ]
                        },
                        "system": "https://fhir.kbv.de/NamingSystem/KBV_NS_Base_BSNR",
                        "value": "654321"
                    }
                ],
                "address": [
                    {
                        "type": "both",
                        "line": ["Musterstr. 1"],
                        "_line": [
                            {
                                "extension": [
                                    {
                                        "url": "http://hl7.org/fhir/StructureDefinition/iso21090-ADXP-houseNumber",
                                        "valueString": "1"
                                    },
                                    {
                                        "url": "http://hl7.org/fhir/StructureDefinition/iso21090-ADXP-streetName",
                                        "valueString": "Musterstr."
                                    }
                                ]
                            }
                        ],
                        "city": "Darmstadt",
                        "postalCode": "64283",
                        "country": "D"
                    }
                ]
            }
        },
        {
            "fullUrl": "Provenance:urn:uuid:a2108e08-32ca-4f22-985c-6f0279f5c89c",
            "resource": {
                "resourceType": "Provenance",
                "id": "a2108e08-32ca-4f22-985c-6f0279f5c89c",
                "meta": {
                    "profile": [
                        "https://fhir.kbv.de/StructureDefinition/KBV_PR_MIO_Vaccination_Provenance|1.1.0"
                    ]
                },
                "target": [
                    {
                        "reference": "urn:uuid:156c96ec-02ca-4770-94e9-b11d2237513d"
                    }
                ],
                "recorded": "2019-12-23T08:39:24+10:00",
                "agent": [
                    {
                        "role": [
                            {
                                "coding": [
                                    {
                                        "system": "http://snomed.info/sct",
                                        "version": "http://snomed.info/sct/900000000000207008/version/20200131",
                                        "code": "125677006",
                                        "display": "Relative (person)"
                                    }
                                ],
                                "text": "Angehöriger"
                            }
                        ],
                        "who": {
                            "display": "unknown",
                            "extension": [
                                {
                                    "url": "http://hl7.org/fhir/StructureDefinition/data-absent-reason",
                                    "valueCode": "unknown"
                                }
                            ]
                        }
                    }
                ]
            }
        }
    ]
}
