{
    "resourceType": "Bundle",
    "id": "001578f8-0b76-4197-afd9-ludger7516e47",
    "meta": {
        "profile": [
            "https://fhir.kbv.de/StructureDefinition/KBV_PR_MIO_Vaccination_Bundle_Entry|1.1.0"
        ],
        "lastUpdated": "2019-12-24T12:30:02Z"
    },
    "identifier": {
        "system": "urn:ietf:rfc:3986",
        "value": "001578f8-0b76-4197-afd9-ludger7516e47"
    },
    "type": "document",
    "timestamp": "2019-12-23T12:30:02Z",
    "entry": [
        {
            "fullUrl": "Composition/6d92d417-8a0d-42b9-959f-567ab2f4650f",
            "resource": {
                "resourceType": "Composition",
                "id": "6d92d417-8a0d-42b9-959f-567ab2f4650f",
                "meta": {
                    "profile": [
                        "https://fhir.kbv.de/StructureDefinition/KBV_PR_MIO_Vaccination_Composition_Prime|1.1.0"
                    ]
                },
                "status": "final",
                "type": {
                    "coding": [
                        {
                            "system": "http://loinc.org",
                            "code": "11369-6",
                            "display": "History of Immunization Narrative"
                        }
                    ]
                },
                "subject": {
                    "reference": "Patient/9774f67f-a238-4daf-b4e6-679deeef3811"
                },
                "date": "2018-07-01T12:30:02Z",
                "author": [
                    {
                        "reference": "PractitionerRole/a24c9cd2-c55e-4859-8d41-db419fc9f6b1"
                    }
                ],
                "title": "Impfeintrag-/einträge Nach-/Übertrag",
                "section": [
                    {
                        "code": {
                            "coding": [
                                {
                                    "system": "http://snomed.info/sct",
                                    "version": "http://snomed.info/sct/900000000000207008/version/20210131",
                                    "code": "713404003",
                                    "display": "Vaccination given (situation)"
                                }
                            ]
                        },
                        "entry": [
                            {
                                "reference": "Immunization/immuniz-0"
                            },
                            {
                                "reference": "Immunization/immuniz-1"
                            },
                            {
                                "reference": "Immunization/immuniz-2"
                            },
                            {
                                "reference": "Immunization/immuniz-3"
                            },
                            {
                                "reference": "Immunization/immuniz-4"
                            },
                            {
                                "reference": "Immunization/immuniz-5"
                            },
                            {
                                "reference": "Immunization/immuniz-6"
                            },
                            {
                                "reference": "Immunization/immuniz-7"
                            },
                            {
                                "reference": "Immunization/immuniz-8"
                            },
                            {
                                "reference": "Immunization/immuniz-9"
                            },
                            {
                                "reference": "Immunization/immuniz-10"
                            },
                            {
                                "reference": "Immunization/immuniz-11"
                            },
                            {
                                "reference": "Immunization/immuniz-12"
                            },
                            {
                                "reference": "Immunization/immuniz-13"
                            },
                            {
                                "reference": "Immunization/immuniz-14"
                            },
                            {
                                "reference": "Immunization/immuniz-15"
                            },
                            {
                                "reference": "Immunization/immuniz-16"
                            },
                            {
                                "reference": "Immunization/immuniz-17"
                            },
                            {
                                "reference": "Immunization/immuniz-18"
                            },
                            {
                                "reference": "Immunization/immuniz-19"
                            },
                            {
                                "reference": "Immunization/immuniz-20"
                            },
                            {
                                "reference": "Immunization/immuniz-21"
                            },
                            {
                                "reference": "Immunization/immuniz-22"
                            },
                            {
                                "reference": "Immunization/immuniz-23"
                            },
                            {
                                "reference": "Immunization/immuniz-24"
                            },
                            {
                                "reference": "Immunization/immuniz-25"
                            },
                            {
                                "reference": "Immunization/immuniz-26"
                            },
                            {
                                "reference": "Immunization/immuniz-27"
                            },
                            {
                                "reference": "Immunization/immuniz-28"
                            },
                            {
                                "reference": "Immunization/immuniz-29"
                            }
                        ]
                    }
                ]
            }
        },
        {
            "fullUrl": "Immunization/immuniz-0",
            "resource": {
                "resourceType": "Immunization",
                "id": "immuniz-0",
                "meta": {
                    "profile": [
                        "https://fhir.kbv.de/StructureDefinition/KBV_PR_MIO_Vaccination_Record_Prime|1.1.0"
                    ]
                },
                "text": {
                    "status": "extensions",
                    "div": "<h1>Vaccination Record Prime</h1>"
                },
                "extension": [
                    {
                        "url": "https://fhir.kbv.de/StructureDefinition/KBV_EX_MIO_Vaccination_Entry_Type",
                        "valueCodeableConcept": {
                            "coding": [
                                {
                                    "system": "https://fhir.kbv.de/CodeSystem/KBV_CS_MIO_Vaccination_Technical_Entry_Type",
                                    "code": "End",
                                    "display": "Eintrag nur digital"
                                }
                            ]
                        }
                    },
                    {
                        "url": "https://fhir.kbv.de/StructureDefinition/KBV_EX_MIO_Vaccination_Attester",
                        "extension": [
                            {
                                "url": "mode",
                                "valueCodeableConcept": {
                                    "coding": [
                                        {
                                            "system": "http://hl7.org/fhir/composition-attestation-mode",
                                            "code": "legal"
                                        }
                                    ]
                                }
                            },
                            {
                                "url": "party",
                                "valueReference": {
                                    "reference": "PractitionerRole/a24c9cd2-c55e-4859-8d41-db419fc9f6b1"
                                }
                            }
                        ]
                    },
                    {
                        "url": "https://fhir.kbv.de/StructureDefinition/KBV_EX_MIO_Vaccination_Enterer",
                        "extension": [
                            {
                                "url": "mode",
                                "valueCodeableConcept": {
                                    "coding": [
                                        {
                                            "system": "http://terminology.hl7.org/CodeSystem/v3-ParticipationType",
                                            "code": "ENT"
                                        }
                                    ]
                                }
                            },
                            {
                                "url": "party",
                                "valueReference": {
                                    "reference": "PractitionerRole/a24c9cd2-c55e-4859-8d41-db419fc9f6b1"
                                }
                            }
                        ]
                    }
                ],
                "status": "completed",
                "vaccineCode": {
                    "coding": [
                        {
                            "system": "http://snomed.info/sct",
                            "version": "http://snomed.info/sct/900000000000207008/version/20200131",
                            "code": "836385002",
                            "display": "Vaccine product containing Yellow fever virus antigen (medicinal product)"
                        },
                        {
                            "system": "http://fhir.de/CodeSystem/dimdi/atc",
                            "version": "atcgm20211",
                            "code": "J07BL",
                            "display": "Gelbfieber-Impfstoffe"
                        },
                        {
                            "system": "http://fhir.de/CodeSystem/ifa/pzn",
                            "code": "2528981",
                            "version": "pzn|1.0.000",
                            "display": "STAMARIL Trockensubstanz mit Lösungsmittel"
                        }
                    ],
                    "text": "Gelbfieberimpfstoff, STAMARIL Trockensubstanz mit Lösungsmittel"
                },
                "patient": {
                    "reference": "Patient/9774f67f-a238-4daf-b4e6-679deeef3811"
                },
                "occurrenceDateTime": "1992-07-16T12:30:02Z",
                "primarySource": true,
                "manufacturer": {
                    "display": "Beispiel-Pharm"
                },
                "lotNumber": "ABCD123419",
                "note": [
                    {
                        "text": "Bei einer ungewöhnlichen Impfreaktion sollte die impfende ärztliche Person benachrichtigt werden. Die ärztlich tätige Person hat, wenn der Verdacht einer gesundheitlichen Schädigung besteht, die über das übliche Ausmaß einer Impfreaktion hinaus geht verpflichtet, den Verdacht dem zuständigen Gesundheitsamt namentlich zu melden (§ 6 Absatz 1 Nr 3 des lnfektionsschutzgesetzes • lfSG) Im Falle eines Impfschadens besteht unter den Voraussetzungen des § 60 Absatz 1 lfSG ein Anspruch auf Entschädigung in entsprechender Anwendung der Vorschriften des Bundesversorgungsgesetzes. Der Antrag ist bei der für die Durchführung des Bundesversorgungsgesetzes zuständigen Behörde (§ 64 Absatz 1 lfSG, i.d.R. 'Versorgungsamt') zu stellen. Weitere Auskünfte erteilt das zuständige Gesundheitsamt."
                    },
                    {
                        "text": "Starke Schwellung der Einstichstelle."
                    }
                ],
                "protocolApplied": [
                    {
                        "extension": [
                            {
                                "url": "https://fhir.kbv.de/StructureDefinition/KBV_EX_MIO_Vaccination_Follow_Up",
                                "valueDateTime": "2001-01-01T12:30:02Z"
                            }
                        ],
                        "targetDisease": [
                            {
                                "coding": [
                                    {
                                        "system": "http://snomed.info/sct",
                                        "version": "http://snomed.info/sct/900000000000207008/version/20200131",
                                        "code": "16541001",
                                        "display": "Yellow fewer (disorder)",
                                        "userSelected": true
                                    }
                                ],
                                "text": "Gelbfieber"
                            }
                        ],
                        "doseNumberString": "unknown"
                    }
                ]
            }
        },
        {
            "fullUrl": "Immunization/immuniz-1",
            "resource": {
                "resourceType": "Immunization",
                "id": "immuniz-1",
                "meta": {
                    "profile": [
                        "https://fhir.kbv.de/StructureDefinition/KBV_PR_MIO_Vaccination_Record_Prime|1.1.0"
                    ]
                },
                "text": {
                    "status": "extensions",
                    "div": "<h1>Vaccination Record Prime</h1>"
                },
                "extension": [
                    {
                        "url": "https://fhir.kbv.de/StructureDefinition/KBV_EX_MIO_Vaccination_Entry_Type",
                        "valueCodeableConcept": {
                            "coding": [
                                {
                                    "system": "https://fhir.kbv.de/CodeSystem/KBV_CS_MIO_Vaccination_Technical_Entry_Type",
                                    "code": "End",
                                    "display": "Eintrag nur digital"
                                }
                            ]
                        }
                    },
                    {
                        "url": "https://fhir.kbv.de/StructureDefinition/KBV_EX_MIO_Vaccination_Attester",
                        "extension": [
                            {
                                "url": "mode",
                                "valueCodeableConcept": {
                                    "coding": [
                                        {
                                            "system": "http://hl7.org/fhir/composition-attestation-mode",
                                            "code": "legal"
                                        }
                                    ]
                                }
                            },
                            {
                                "url": "party",
                                "valueReference": {
                                    "reference": "PractitionerRole/a24c9cd2-c55e-4859-8d41-db419fc9f6b1"
                                }
                            }
                        ]
                    },
                    {
                        "url": "https://fhir.kbv.de/StructureDefinition/KBV_EX_MIO_Vaccination_Enterer",
                        "extension": [
                            {
                                "url": "mode",
                                "valueCodeableConcept": {
                                    "coding": [
                                        {
                                            "system": "http://terminology.hl7.org/CodeSystem/v3-ParticipationType",
                                            "code": "ENT"
                                        }
                                    ]
                                }
                            },
                            {
                                "url": "party",
                                "valueReference": {
                                    "reference": "PractitionerRole/a24c9cd2-c55e-4859-8d41-db419fc9f6b1"
                                }
                            }
                        ]
                    }
                ],
                "status": "completed",
                "vaccineCode": {
                    "coding": [
                        {
                            "system": "http://snomed.info/sct",
                            "version": "http://snomed.info/sct/900000000000207008/version/20200131",
                            "code": "836385002",
                            "display": "Vaccine product containing Yellow fever virus antigen (medicinal product)"
                        },
                        {
                            "system": "http://fhir.de/CodeSystem/dimdi/atc",
                            "version": "atcgm20211",
                            "code": "J07BL",
                            "display": "Gelbfieber-Impfstoffe"
                        },
                        {
                            "system": "http://fhir.de/CodeSystem/ifa/pzn",
                            "code": "2528981",
                            "version": "pzn|1.0.000",
                            "display": "STAMARIL Trockensubstanz mit Lösungsmittel"
                        }
                    ],
                    "text": "Gelbfieberimpfstoff, STAMARIL Trockensubstanz mit Lösungsmittel"
                },
                "patient": {
                    "reference": "Patient/9774f67f-a238-4daf-b4e6-679deeef3811"
                },
                "occurrenceDateTime": "1992-07-16T12:30:02Z",
                "primarySource": true,
                "manufacturer": {
                    "display": "Beispiel-Pharm"
                },
                "lotNumber": "ABCD123419",
                "note": [
                    {
                        "text": "Bei einer ungewöhnlichen Impfreaktion sollte die impfende ärztliche Person benachrichtigt werden. Die ärztlich tätige Person hat, wenn der Verdacht einer gesundheitlichen Schädigung besteht, die über das übliche Ausmaß einer Impfreaktion hinaus geht verpflichtet, den Verdacht dem zuständigen Gesundheitsamt namentlich zu melden (§ 6 Absatz 1 Nr 3 des lnfektionsschutzgesetzes • lfSG) Im Falle eines Impfschadens besteht unter den Voraussetzungen des § 60 Absatz 1 lfSG ein Anspruch auf Entschädigung in entsprechender Anwendung der Vorschriften des Bundesversorgungsgesetzes. Der Antrag ist bei der für die Durchführung des Bundesversorgungsgesetzes zuständigen Behörde (§ 64 Absatz 1 lfSG, i.d.R. 'Versorgungsamt') zu stellen. Weitere Auskünfte erteilt das zuständige Gesundheitsamt."
                    },
                    {
                        "text": "Starke Schwellung der Einstichstelle."
                    }
                ],
                "protocolApplied": [
                    {
                        "extension": [
                            {
                                "url": "https://fhir.kbv.de/StructureDefinition/KBV_EX_MIO_Vaccination_Follow_Up",
                                "valueDateTime": "2001-01-01T12:30:02Z"
                            }
                        ],
                        "targetDisease": [
                            {
                                "coding": [
                                    {
                                        "system": "http://snomed.info/sct",
                                        "version": "http://snomed.info/sct/900000000000207008/version/20200131",
                                        "code": "16541001",
                                        "display": "Yellow fewer (disorder)",
                                        "userSelected": true
                                    }
                                ],
                                "text": "Gelbfieber"
                            }
                        ],
                        "doseNumberString": "unknown"
                    }
                ]
            }
        },
        {
            "fullUrl": "Immunization/immuniz-2",
            "resource": {
                "resourceType": "Immunization",
                "id": "immuniz-2",
                "meta": {
                    "profile": [
                        "https://fhir.kbv.de/StructureDefinition/KBV_PR_MIO_Vaccination_Record_Prime|1.1.0"
                    ]
                },
                "text": {
                    "status": "extensions",
                    "div": "<h1>Vaccination Record Prime</h1>"
                },
                "extension": [
                    {
                        "url": "https://fhir.kbv.de/StructureDefinition/KBV_EX_MIO_Vaccination_Entry_Type",
                        "valueCodeableConcept": {
                            "coding": [
                                {
                                    "system": "https://fhir.kbv.de/CodeSystem/KBV_CS_MIO_Vaccination_Technical_Entry_Type",
                                    "code": "End",
                                    "display": "Eintrag nur digital"
                                }
                            ]
                        }
                    },
                    {
                        "url": "https://fhir.kbv.de/StructureDefinition/KBV_EX_MIO_Vaccination_Attester",
                        "extension": [
                            {
                                "url": "mode",
                                "valueCodeableConcept": {
                                    "coding": [
                                        {
                                            "system": "http://hl7.org/fhir/composition-attestation-mode",
                                            "code": "legal"
                                        }
                                    ]
                                }
                            },
                            {
                                "url": "party",
                                "valueReference": {
                                    "reference": "PractitionerRole/a24c9cd2-c55e-4859-8d41-db419fc9f6b1"
                                }
                            }
                        ]
                    },
                    {
                        "url": "https://fhir.kbv.de/StructureDefinition/KBV_EX_MIO_Vaccination_Enterer",
                        "extension": [
                            {
                                "url": "mode",
                                "valueCodeableConcept": {
                                    "coding": [
                                        {
                                            "system": "http://terminology.hl7.org/CodeSystem/v3-ParticipationType",
                                            "code": "ENT"
                                        }
                                    ]
                                }
                            },
                            {
                                "url": "party",
                                "valueReference": {
                                    "reference": "PractitionerRole/a24c9cd2-c55e-4859-8d41-db419fc9f6b1"
                                }
                            }
                        ]
                    }
                ],
                "status": "completed",
                "vaccineCode": {
                    "coding": [
                        {
                            "system": "http://snomed.info/sct",
                            "version": "http://snomed.info/sct/900000000000207008/version/20200131",
                            "code": "836385002",
                            "display": "Vaccine product containing Yellow fever virus antigen (medicinal product)"
                        },
                        {
                            "system": "http://fhir.de/CodeSystem/dimdi/atc",
                            "version": "atcgm20211",
                            "code": "J07BL",
                            "display": "Gelbfieber-Impfstoffe"
                        },
                        {
                            "system": "http://fhir.de/CodeSystem/ifa/pzn",
                            "code": "2528981",
                            "version": "pzn|1.0.000",
                            "display": "STAMARIL Trockensubstanz mit Lösungsmittel"
                        }
                    ],
                    "text": "Gelbfieberimpfstoff, STAMARIL Trockensubstanz mit Lösungsmittel"
                },
                "patient": {
                    "reference": "Patient/9774f67f-a238-4daf-b4e6-679deeef3811"
                },
                "occurrenceDateTime": "1992-07-16T12:30:02Z",
                "primarySource": true,
                "manufacturer": {
                    "display": "Beispiel-Pharm"
                },
                "lotNumber": "ABCD123419",
                "note": [
                    {
                        "text": "Bei einer ungewöhnlichen Impfreaktion sollte die impfende ärztliche Person benachrichtigt werden. Die ärztlich tätige Person hat, wenn der Verdacht einer gesundheitlichen Schädigung besteht, die über das übliche Ausmaß einer Impfreaktion hinaus geht verpflichtet, den Verdacht dem zuständigen Gesundheitsamt namentlich zu melden (§ 6 Absatz 1 Nr 3 des lnfektionsschutzgesetzes • lfSG) Im Falle eines Impfschadens besteht unter den Voraussetzungen des § 60 Absatz 1 lfSG ein Anspruch auf Entschädigung in entsprechender Anwendung der Vorschriften des Bundesversorgungsgesetzes. Der Antrag ist bei der für die Durchführung des Bundesversorgungsgesetzes zuständigen Behörde (§ 64 Absatz 1 lfSG, i.d.R. 'Versorgungsamt') zu stellen. Weitere Auskünfte erteilt das zuständige Gesundheitsamt."
                    },
                    {
                        "text": "Starke Schwellung der Einstichstelle."
                    }
                ],
                "protocolApplied": [
                    {
                        "extension": [
                            {
                                "url": "https://fhir.kbv.de/StructureDefinition/KBV_EX_MIO_Vaccination_Follow_Up",
                                "valueDateTime": "2001-01-01T12:30:02Z"
                            }
                        ],
                        "targetDisease": [
                            {
                                "coding": [
                                    {
                                        "system": "http://snomed.info/sct",
                                        "version": "http://snomed.info/sct/900000000000207008/version/20200131",
                                        "code": "16541001",
                                        "display": "Yellow fewer (disorder)",
                                        "userSelected": true
                                    }
                                ],
                                "text": "Gelbfieber"
                            }
                        ],
                        "doseNumberString": "unknown"
                    }
                ]
            }
        },
        {
            "fullUrl": "Immunization/immuniz-3",
            "resource": {
                "resourceType": "Immunization",
                "id": "immuniz-3",
                "meta": {
                    "profile": [
                        "https://fhir.kbv.de/StructureDefinition/KBV_PR_MIO_Vaccination_Record_Prime|1.1.0"
                    ]
                },
                "text": {
                    "status": "extensions",
                    "div": "<h1>Vaccination Record Prime</h1>"
                },
                "extension": [
                    {
                        "url": "https://fhir.kbv.de/StructureDefinition/KBV_EX_MIO_Vaccination_Entry_Type",
                        "valueCodeableConcept": {
                            "coding": [
                                {
                                    "system": "https://fhir.kbv.de/CodeSystem/KBV_CS_MIO_Vaccination_Technical_Entry_Type",
                                    "code": "End",
                                    "display": "Eintrag nur digital"
                                }
                            ]
                        }
                    },
                    {
                        "url": "https://fhir.kbv.de/StructureDefinition/KBV_EX_MIO_Vaccination_Attester",
                        "extension": [
                            {
                                "url": "mode",
                                "valueCodeableConcept": {
                                    "coding": [
                                        {
                                            "system": "http://hl7.org/fhir/composition-attestation-mode",
                                            "code": "legal"
                                        }
                                    ]
                                }
                            },
                            {
                                "url": "party",
                                "valueReference": {
                                    "reference": "PractitionerRole/a24c9cd2-c55e-4859-8d41-db419fc9f6b1"
                                }
                            }
                        ]
                    },
                    {
                        "url": "https://fhir.kbv.de/StructureDefinition/KBV_EX_MIO_Vaccination_Enterer",
                        "extension": [
                            {
                                "url": "mode",
                                "valueCodeableConcept": {
                                    "coding": [
                                        {
                                            "system": "http://terminology.hl7.org/CodeSystem/v3-ParticipationType",
                                            "code": "ENT"
                                        }
                                    ]
                                }
                            },
                            {
                                "url": "party",
                                "valueReference": {
                                    "reference": "PractitionerRole/a24c9cd2-c55e-4859-8d41-db419fc9f6b1"
                                }
                            }
                        ]
                    }
                ],
                "status": "completed",
                "vaccineCode": {
                    "coding": [
                        {
                            "system": "http://snomed.info/sct",
                            "version": "http://snomed.info/sct/900000000000207008/version/20200131",
                            "code": "836385002",
                            "display": "Vaccine product containing Yellow fever virus antigen (medicinal product)"
                        },
                        {
                            "system": "http://fhir.de/CodeSystem/dimdi/atc",
                            "version": "atcgm20211",
                            "code": "J07BL",
                            "display": "Gelbfieber-Impfstoffe"
                        },
                        {
                            "system": "http://fhir.de/CodeSystem/ifa/pzn",
                            "code": "2528981",
                            "version": "pzn|1.0.000",
                            "display": "STAMARIL Trockensubstanz mit Lösungsmittel"
                        }
                    ],
                    "text": "Gelbfieberimpfstoff, STAMARIL Trockensubstanz mit Lösungsmittel"
                },
                "patient": {
                    "reference": "Patient/9774f67f-a238-4daf-b4e6-679deeef3811"
                },
                "occurrenceDateTime": "1992-07-16T12:30:02Z",
                "primarySource": true,
                "manufacturer": {
                    "display": "Beispiel-Pharm"
                },
                "lotNumber": "ABCD123419",
                "note": [
                    {
                        "text": "Bei einer ungewöhnlichen Impfreaktion sollte die impfende ärztliche Person benachrichtigt werden. Die ärztlich tätige Person hat, wenn der Verdacht einer gesundheitlichen Schädigung besteht, die über das übliche Ausmaß einer Impfreaktion hinaus geht verpflichtet, den Verdacht dem zuständigen Gesundheitsamt namentlich zu melden (§ 6 Absatz 1 Nr 3 des lnfektionsschutzgesetzes • lfSG) Im Falle eines Impfschadens besteht unter den Voraussetzungen des § 60 Absatz 1 lfSG ein Anspruch auf Entschädigung in entsprechender Anwendung der Vorschriften des Bundesversorgungsgesetzes. Der Antrag ist bei der für die Durchführung des Bundesversorgungsgesetzes zuständigen Behörde (§ 64 Absatz 1 lfSG, i.d.R. 'Versorgungsamt') zu stellen. Weitere Auskünfte erteilt das zuständige Gesundheitsamt."
                    },
                    {
                        "text": "Starke Schwellung der Einstichstelle."
                    }
                ],
                "protocolApplied": [
                    {
                        "extension": [
                            {
                                "url": "https://fhir.kbv.de/StructureDefinition/KBV_EX_MIO_Vaccination_Follow_Up",
                                "valueDateTime": "2001-01-01T12:30:02Z"
                            }
                        ],
                        "targetDisease": [
                            {
                                "coding": [
                                    {
                                        "system": "http://snomed.info/sct",
                                        "version": "http://snomed.info/sct/900000000000207008/version/20200131",
                                        "code": "16541001",
                                        "display": "Yellow fewer (disorder)",
                                        "userSelected": true
                                    }
                                ],
                                "text": "Gelbfieber"
                            }
                        ],
                        "doseNumberString": "unknown"
                    }
                ]
            }
        },
        {
            "fullUrl": "Immunization/immuniz-4",
            "resource": {
                "resourceType": "Immunization",
                "id": "immuniz-4",
                "meta": {
                    "profile": [
                        "https://fhir.kbv.de/StructureDefinition/KBV_PR_MIO_Vaccination_Record_Prime|1.1.0"
                    ]
                },
                "text": {
                    "status": "extensions",
                    "div": "<h1>Vaccination Record Prime</h1>"
                },
                "extension": [
                    {
                        "url": "https://fhir.kbv.de/StructureDefinition/KBV_EX_MIO_Vaccination_Entry_Type",
                        "valueCodeableConcept": {
                            "coding": [
                                {
                                    "system": "https://fhir.kbv.de/CodeSystem/KBV_CS_MIO_Vaccination_Technical_Entry_Type",
                                    "code": "End",
                                    "display": "Eintrag nur digital"
                                }
                            ]
                        }
                    },
                    {
                        "url": "https://fhir.kbv.de/StructureDefinition/KBV_EX_MIO_Vaccination_Attester",
                        "extension": [
                            {
                                "url": "mode",
                                "valueCodeableConcept": {
                                    "coding": [
                                        {
                                            "system": "http://hl7.org/fhir/composition-attestation-mode",
                                            "code": "legal"
                                        }
                                    ]
                                }
                            },
                            {
                                "url": "party",
                                "valueReference": {
                                    "reference": "PractitionerRole/a24c9cd2-c55e-4859-8d41-db419fc9f6b1"
                                }
                            }
                        ]
                    },
                    {
                        "url": "https://fhir.kbv.de/StructureDefinition/KBV_EX_MIO_Vaccination_Enterer",
                        "extension": [
                            {
                                "url": "mode",
                                "valueCodeableConcept": {
                                    "coding": [
                                        {
                                            "system": "http://terminology.hl7.org/CodeSystem/v3-ParticipationType",
                                            "code": "ENT"
                                        }
                                    ]
                                }
                            },
                            {
                                "url": "party",
                                "valueReference": {
                                    "reference": "PractitionerRole/a24c9cd2-c55e-4859-8d41-db419fc9f6b1"
                                }
                            }
                        ]
                    }
                ],
                "status": "completed",
                "vaccineCode": {
                    "coding": [
                        {
                            "system": "http://snomed.info/sct",
                            "version": "http://snomed.info/sct/900000000000207008/version/20200131",
                            "code": "836385002",
                            "display": "Vaccine product containing Yellow fever virus antigen (medicinal product)"
                        },
                        {
                            "system": "http://fhir.de/CodeSystem/dimdi/atc",
                            "version": "atcgm20211",
                            "code": "J07BL",
                            "display": "Gelbfieber-Impfstoffe"
                        },
                        {
                            "system": "http://fhir.de/CodeSystem/ifa/pzn",
                            "code": "2528981",
                            "version": "pzn|1.0.000",
                            "display": "STAMARIL Trockensubstanz mit Lösungsmittel"
                        }
                    ],
                    "text": "Gelbfieberimpfstoff, STAMARIL Trockensubstanz mit Lösungsmittel"
                },
                "patient": {
                    "reference": "Patient/9774f67f-a238-4daf-b4e6-679deeef3811"
                },
                "occurrenceDateTime": "1992-07-16T12:30:02Z",
                "primarySource": true,
                "manufacturer": {
                    "display": "Beispiel-Pharm"
                },
                "lotNumber": "ABCD123419",
                "note": [
                    {
                        "text": "Bei einer ungewöhnlichen Impfreaktion sollte die impfende ärztliche Person benachrichtigt werden. Die ärztlich tätige Person hat, wenn der Verdacht einer gesundheitlichen Schädigung besteht, die über das übliche Ausmaß einer Impfreaktion hinaus geht verpflichtet, den Verdacht dem zuständigen Gesundheitsamt namentlich zu melden (§ 6 Absatz 1 Nr 3 des lnfektionsschutzgesetzes • lfSG) Im Falle eines Impfschadens besteht unter den Voraussetzungen des § 60 Absatz 1 lfSG ein Anspruch auf Entschädigung in entsprechender Anwendung der Vorschriften des Bundesversorgungsgesetzes. Der Antrag ist bei der für die Durchführung des Bundesversorgungsgesetzes zuständigen Behörde (§ 64 Absatz 1 lfSG, i.d.R. 'Versorgungsamt') zu stellen. Weitere Auskünfte erteilt das zuständige Gesundheitsamt."
                    },
                    {
                        "text": "Starke Schwellung der Einstichstelle."
                    }
                ],
                "protocolApplied": [
                    {
                        "extension": [
                            {
                                "url": "https://fhir.kbv.de/StructureDefinition/KBV_EX_MIO_Vaccination_Follow_Up",
                                "valueDateTime": "2001-01-01T12:30:02Z"
                            }
                        ],
                        "targetDisease": [
                            {
                                "coding": [
                                    {
                                        "system": "http://snomed.info/sct",
                                        "version": "http://snomed.info/sct/900000000000207008/version/20200131",
                                        "code": "16541001",
                                        "display": "Yellow fewer (disorder)",
                                        "userSelected": true
                                    }
                                ],
                                "text": "Gelbfieber"
                            }
                        ],
                        "doseNumberString": "unknown"
                    }
                ]
            }
        },
        {
            "fullUrl": "Immunization/immuniz-5",
            "resource": {
                "resourceType": "Immunization",
                "id": "immuniz-5",
                "meta": {
                    "profile": [
                        "https://fhir.kbv.de/StructureDefinition/KBV_PR_MIO_Vaccination_Record_Prime|1.1.0"
                    ]
                },
                "text": {
                    "status": "extensions",
                    "div": "<h1>Vaccination Record Prime</h1>"
                },
                "extension": [
                    {
                        "url": "https://fhir.kbv.de/StructureDefinition/KBV_EX_MIO_Vaccination_Entry_Type",
                        "valueCodeableConcept": {
                            "coding": [
                                {
                                    "system": "https://fhir.kbv.de/CodeSystem/KBV_CS_MIO_Vaccination_Technical_Entry_Type",
                                    "code": "End",
                                    "display": "Eintrag nur digital"
                                }
                            ]
                        }
                    },
                    {
                        "url": "https://fhir.kbv.de/StructureDefinition/KBV_EX_MIO_Vaccination_Attester",
                        "extension": [
                            {
                                "url": "mode",
                                "valueCodeableConcept": {
                                    "coding": [
                                        {
                                            "system": "http://hl7.org/fhir/composition-attestation-mode",
                                            "code": "legal"
                                        }
                                    ]
                                }
                            },
                            {
                                "url": "party",
                                "valueReference": {
                                    "reference": "PractitionerRole/a24c9cd2-c55e-4859-8d41-db419fc9f6b1"
                                }
                            }
                        ]
                    },
                    {
                        "url": "https://fhir.kbv.de/StructureDefinition/KBV_EX_MIO_Vaccination_Enterer",
                        "extension": [
                            {
                                "url": "mode",
                                "valueCodeableConcept": {
                                    "coding": [
                                        {
                                            "system": "http://terminology.hl7.org/CodeSystem/v3-ParticipationType",
                                            "code": "ENT"
                                        }
                                    ]
                                }
                            },
                            {
                                "url": "party",
                                "valueReference": {
                                    "reference": "PractitionerRole/a24c9cd2-c55e-4859-8d41-db419fc9f6b1"
                                }
                            }
                        ]
                    }
                ],
                "status": "completed",
                "vaccineCode": {
                    "coding": [
                        {
                            "system": "http://snomed.info/sct",
                            "version": "http://snomed.info/sct/900000000000207008/version/20200131",
                            "code": "836385002",
                            "display": "Vaccine product containing Yellow fever virus antigen (medicinal product)"
                        },
                        {
                            "system": "http://fhir.de/CodeSystem/dimdi/atc",
                            "version": "atcgm20211",
                            "code": "J07BL",
                            "display": "Gelbfieber-Impfstoffe"
                        },
                        {
                            "system": "http://fhir.de/CodeSystem/ifa/pzn",
                            "code": "2528981",
                            "version": "pzn|1.0.000",
                            "display": "STAMARIL Trockensubstanz mit Lösungsmittel"
                        }
                    ],
                    "text": "Gelbfieberimpfstoff, STAMARIL Trockensubstanz mit Lösungsmittel"
                },
                "patient": {
                    "reference": "Patient/9774f67f-a238-4daf-b4e6-679deeef3811"
                },
                "occurrenceDateTime": "1992-07-16T12:30:02Z",
                "primarySource": true,
                "manufacturer": {
                    "display": "Beispiel-Pharm"
                },
                "lotNumber": "ABCD123419",
                "note": [
                    {
                        "text": "Bei einer ungewöhnlichen Impfreaktion sollte die impfende ärztliche Person benachrichtigt werden. Die ärztlich tätige Person hat, wenn der Verdacht einer gesundheitlichen Schädigung besteht, die über das übliche Ausmaß einer Impfreaktion hinaus geht verpflichtet, den Verdacht dem zuständigen Gesundheitsamt namentlich zu melden (§ 6 Absatz 1 Nr 3 des lnfektionsschutzgesetzes • lfSG) Im Falle eines Impfschadens besteht unter den Voraussetzungen des § 60 Absatz 1 lfSG ein Anspruch auf Entschädigung in entsprechender Anwendung der Vorschriften des Bundesversorgungsgesetzes. Der Antrag ist bei der für die Durchführung des Bundesversorgungsgesetzes zuständigen Behörde (§ 64 Absatz 1 lfSG, i.d.R. 'Versorgungsamt') zu stellen. Weitere Auskünfte erteilt das zuständige Gesundheitsamt."
                    },
                    {
                        "text": "Starke Schwellung der Einstichstelle."
                    }
                ],
                "protocolApplied": [
                    {
                        "extension": [
                            {
                                "url": "https://fhir.kbv.de/StructureDefinition/KBV_EX_MIO_Vaccination_Follow_Up",
                                "valueDateTime": "2001-01-01T12:30:02Z"
                            }
                        ],
                        "targetDisease": [
                            {
                                "coding": [
                                    {
                                        "system": "http://snomed.info/sct",
                                        "version": "http://snomed.info/sct/900000000000207008/version/20200131",
                                        "code": "16541001",
                                        "display": "Yellow fewer (disorder)",
                                        "userSelected": true
                                    }
                                ],
                                "text": "Gelbfieber"
                            }
                        ],
                        "doseNumberString": "unknown"
                    }
                ]
            }
        },
        {
            "fullUrl": "Immunization/immuniz-6",
            "resource": {
                "resourceType": "Immunization",
                "id": "immuniz-6",
                "meta": {
                    "profile": [
                        "https://fhir.kbv.de/StructureDefinition/KBV_PR_MIO_Vaccination_Record_Prime|1.1.0"
                    ]
                },
                "text": {
                    "status": "extensions",
                    "div": "<h1>Vaccination Record Prime</h1>"
                },
                "extension": [
                    {
                        "url": "https://fhir.kbv.de/StructureDefinition/KBV_EX_MIO_Vaccination_Entry_Type",
                        "valueCodeableConcept": {
                            "coding": [
                                {
                                    "system": "https://fhir.kbv.de/CodeSystem/KBV_CS_MIO_Vaccination_Technical_Entry_Type",
                                    "code": "End",
                                    "display": "Eintrag nur digital"
                                }
                            ]
                        }
                    },
                    {
                        "url": "https://fhir.kbv.de/StructureDefinition/KBV_EX_MIO_Vaccination_Attester",
                        "extension": [
                            {
                                "url": "mode",
                                "valueCodeableConcept": {
                                    "coding": [
                                        {
                                            "system": "http://hl7.org/fhir/composition-attestation-mode",
                                            "code": "legal"
                                        }
                                    ]
                                }
                            },
                            {
                                "url": "party",
                                "valueReference": {
                                    "reference": "PractitionerRole/a24c9cd2-c55e-4859-8d41-db419fc9f6b1"
                                }
                            }
                        ]
                    },
                    {
                        "url": "https://fhir.kbv.de/StructureDefinition/KBV_EX_MIO_Vaccination_Enterer",
                        "extension": [
                            {
                                "url": "mode",
                                "valueCodeableConcept": {
                                    "coding": [
                                        {
                                            "system": "http://terminology.hl7.org/CodeSystem/v3-ParticipationType",
                                            "code": "ENT"
                                        }
                                    ]
                                }
                            },
                            {
                                "url": "party",
                                "valueReference": {
                                    "reference": "PractitionerRole/a24c9cd2-c55e-4859-8d41-db419fc9f6b1"
                                }
                            }
                        ]
                    }
                ],
                "status": "completed",
                "vaccineCode": {
                    "coding": [
                        {
                            "system": "http://snomed.info/sct",
                            "version": "http://snomed.info/sct/900000000000207008/version/20200131",
                            "code": "836385002",
                            "display": "Vaccine product containing Yellow fever virus antigen (medicinal product)"
                        },
                        {
                            "system": "http://fhir.de/CodeSystem/dimdi/atc",
                            "version": "atcgm20211",
                            "code": "J07BL",
                            "display": "Gelbfieber-Impfstoffe"
                        },
                        {
                            "system": "http://fhir.de/CodeSystem/ifa/pzn",
                            "code": "2528981",
                            "version": "pzn|1.0.000",
                            "display": "STAMARIL Trockensubstanz mit Lösungsmittel"
                        }
                    ],
                    "text": "Gelbfieberimpfstoff, STAMARIL Trockensubstanz mit Lösungsmittel"
                },
                "patient": {
                    "reference": "Patient/9774f67f-a238-4daf-b4e6-679deeef3811"
                },
                "occurrenceDateTime": "1992-07-16T12:30:02Z",
                "primarySource": true,
                "manufacturer": {
                    "display": "Beispiel-Pharm"
                },
                "lotNumber": "ABCD123419",
                "note": [
                    {
                        "text": "Bei einer ungewöhnlichen Impfreaktion sollte die impfende ärztliche Person benachrichtigt werden. Die ärztlich tätige Person hat, wenn der Verdacht einer gesundheitlichen Schädigung besteht, die über das übliche Ausmaß einer Impfreaktion hinaus geht verpflichtet, den Verdacht dem zuständigen Gesundheitsamt namentlich zu melden (§ 6 Absatz 1 Nr 3 des lnfektionsschutzgesetzes • lfSG) Im Falle eines Impfschadens besteht unter den Voraussetzungen des § 60 Absatz 1 lfSG ein Anspruch auf Entschädigung in entsprechender Anwendung der Vorschriften des Bundesversorgungsgesetzes. Der Antrag ist bei der für die Durchführung des Bundesversorgungsgesetzes zuständigen Behörde (§ 64 Absatz 1 lfSG, i.d.R. 'Versorgungsamt') zu stellen. Weitere Auskünfte erteilt das zuständige Gesundheitsamt."
                    },
                    {
                        "text": "Starke Schwellung der Einstichstelle."
                    }
                ],
                "protocolApplied": [
                    {
                        "extension": [
                            {
                                "url": "https://fhir.kbv.de/StructureDefinition/KBV_EX_MIO_Vaccination_Follow_Up",
                                "valueDateTime": "2001-01-01T12:30:02Z"
                            }
                        ],
                        "targetDisease": [
                            {
                                "coding": [
                                    {
                                        "system": "http://snomed.info/sct",
                                        "version": "http://snomed.info/sct/900000000000207008/version/20200131",
                                        "code": "16541001",
                                        "display": "Yellow fewer (disorder)",
                                        "userSelected": true
                                    }
                                ],
                                "text": "Gelbfieber"
                            }
                        ],
                        "doseNumberString": "unknown"
                    }
                ]
            }
        },
        {
            "fullUrl": "Immunization/immuniz-7",
            "resource": {
                "resourceType": "Immunization",
                "id": "immuniz-7",
                "meta": {
                    "profile": [
                        "https://fhir.kbv.de/StructureDefinition/KBV_PR_MIO_Vaccination_Record_Prime|1.1.0"
                    ]
                },
                "text": {
                    "status": "extensions",
                    "div": "<h1>Vaccination Record Prime</h1>"
                },
                "extension": [
                    {
                        "url": "https://fhir.kbv.de/StructureDefinition/KBV_EX_MIO_Vaccination_Entry_Type",
                        "valueCodeableConcept": {
                            "coding": [
                                {
                                    "system": "https://fhir.kbv.de/CodeSystem/KBV_CS_MIO_Vaccination_Technical_Entry_Type",
                                    "code": "End",
                                    "display": "Eintrag nur digital"
                                }
                            ]
                        }
                    },
                    {
                        "url": "https://fhir.kbv.de/StructureDefinition/KBV_EX_MIO_Vaccination_Attester",
                        "extension": [
                            {
                                "url": "mode",
                                "valueCodeableConcept": {
                                    "coding": [
                                        {
                                            "system": "http://hl7.org/fhir/composition-attestation-mode",
                                            "code": "legal"
                                        }
                                    ]
                                }
                            },
                            {
                                "url": "party",
                                "valueReference": {
                                    "reference": "PractitionerRole/a24c9cd2-c55e-4859-8d41-db419fc9f6b1"
                                }
                            }
                        ]
                    },
                    {
                        "url": "https://fhir.kbv.de/StructureDefinition/KBV_EX_MIO_Vaccination_Enterer",
                        "extension": [
                            {
                                "url": "mode",
                                "valueCodeableConcept": {
                                    "coding": [
                                        {
                                            "system": "http://terminology.hl7.org/CodeSystem/v3-ParticipationType",
                                            "code": "ENT"
                                        }
                                    ]
                                }
                            },
                            {
                                "url": "party",
                                "valueReference": {
                                    "reference": "PractitionerRole/a24c9cd2-c55e-4859-8d41-db419fc9f6b1"
                                }
                            }
                        ]
                    }
                ],
                "status": "completed",
                "vaccineCode": {
                    "coding": [
                        {
                            "system": "http://snomed.info/sct",
                            "version": "http://snomed.info/sct/900000000000207008/version/20200131",
                            "code": "836385002",
                            "display": "Vaccine product containing Yellow fever virus antigen (medicinal product)"
                        },
                        {
                            "system": "http://fhir.de/CodeSystem/dimdi/atc",
                            "version": "atcgm20211",
                            "code": "J07BL",
                            "display": "Gelbfieber-Impfstoffe"
                        },
                        {
                            "system": "http://fhir.de/CodeSystem/ifa/pzn",
                            "code": "2528981",
                            "version": "pzn|1.0.000",
                            "display": "STAMARIL Trockensubstanz mit Lösungsmittel"
                        }
                    ],
                    "text": "Gelbfieberimpfstoff, STAMARIL Trockensubstanz mit Lösungsmittel"
                },
                "patient": {
                    "reference": "Patient/9774f67f-a238-4daf-b4e6-679deeef3811"
                },
                "occurrenceDateTime": "1992-07-16T12:30:02Z",
                "primarySource": true,
                "manufacturer": {
                    "display": "Beispiel-Pharm"
                },
                "lotNumber": "ABCD123419",
                "note": [
                    {
                        "text": "Bei einer ungewöhnlichen Impfreaktion sollte die impfende ärztliche Person benachrichtigt werden. Die ärztlich tätige Person hat, wenn der Verdacht einer gesundheitlichen Schädigung besteht, die über das übliche Ausmaß einer Impfreaktion hinaus geht verpflichtet, den Verdacht dem zuständigen Gesundheitsamt namentlich zu melden (§ 6 Absatz 1 Nr 3 des lnfektionsschutzgesetzes • lfSG) Im Falle eines Impfschadens besteht unter den Voraussetzungen des § 60 Absatz 1 lfSG ein Anspruch auf Entschädigung in entsprechender Anwendung der Vorschriften des Bundesversorgungsgesetzes. Der Antrag ist bei der für die Durchführung des Bundesversorgungsgesetzes zuständigen Behörde (§ 64 Absatz 1 lfSG, i.d.R. 'Versorgungsamt') zu stellen. Weitere Auskünfte erteilt das zuständige Gesundheitsamt."
                    },
                    {
                        "text": "Starke Schwellung der Einstichstelle."
                    }
                ],
                "protocolApplied": [
                    {
                        "extension": [
                            {
                                "url": "https://fhir.kbv.de/StructureDefinition/KBV_EX_MIO_Vaccination_Follow_Up",
                                "valueDateTime": "2001-01-01T12:30:02Z"
                            }
                        ],
                        "targetDisease": [
                            {
                                "coding": [
                                    {
                                        "system": "http://snomed.info/sct",
                                        "version": "http://snomed.info/sct/900000000000207008/version/20200131",
                                        "code": "16541001",
                                        "display": "Yellow fewer (disorder)",
                                        "userSelected": true
                                    }
                                ],
                                "text": "Gelbfieber"
                            }
                        ],
                        "doseNumberString": "unknown"
                    }
                ]
            }
        },
        {
            "fullUrl": "Immunization/immuniz-8",
            "resource": {
                "resourceType": "Immunization",
                "id": "immuniz-8",
                "meta": {
                    "profile": [
                        "https://fhir.kbv.de/StructureDefinition/KBV_PR_MIO_Vaccination_Record_Prime|1.1.0"
                    ]
                },
                "text": {
                    "status": "extensions",
                    "div": "<h1>Vaccination Record Prime</h1>"
                },
                "extension": [
                    {
                        "url": "https://fhir.kbv.de/StructureDefinition/KBV_EX_MIO_Vaccination_Entry_Type",
                        "valueCodeableConcept": {
                            "coding": [
                                {
                                    "system": "https://fhir.kbv.de/CodeSystem/KBV_CS_MIO_Vaccination_Technical_Entry_Type",
                                    "code": "End",
                                    "display": "Eintrag nur digital"
                                }
                            ]
                        }
                    },
                    {
                        "url": "https://fhir.kbv.de/StructureDefinition/KBV_EX_MIO_Vaccination_Attester",
                        "extension": [
                            {
                                "url": "mode",
                                "valueCodeableConcept": {
                                    "coding": [
                                        {
                                            "system": "http://hl7.org/fhir/composition-attestation-mode",
                                            "code": "legal"
                                        }
                                    ]
                                }
                            },
                            {
                                "url": "party",
                                "valueReference": {
                                    "reference": "PractitionerRole/a24c9cd2-c55e-4859-8d41-db419fc9f6b1"
                                }
                            }
                        ]
                    },
                    {
                        "url": "https://fhir.kbv.de/StructureDefinition/KBV_EX_MIO_Vaccination_Enterer",
                        "extension": [
                            {
                                "url": "mode",
                                "valueCodeableConcept": {
                                    "coding": [
                                        {
                                            "system": "http://terminology.hl7.org/CodeSystem/v3-ParticipationType",
                                            "code": "ENT"
                                        }
                                    ]
                                }
                            },
                            {
                                "url": "party",
                                "valueReference": {
                                    "reference": "PractitionerRole/a24c9cd2-c55e-4859-8d41-db419fc9f6b1"
                                }
                            }
                        ]
                    }
                ],
                "status": "completed",
                "vaccineCode": {
                    "coding": [
                        {
                            "system": "http://snomed.info/sct",
                            "version": "http://snomed.info/sct/900000000000207008/version/20200131",
                            "code": "836385002",
                            "display": "Vaccine product containing Yellow fever virus antigen (medicinal product)"
                        },
                        {
                            "system": "http://fhir.de/CodeSystem/dimdi/atc",
                            "version": "atcgm20211",
                            "code": "J07BL",
                            "display": "Gelbfieber-Impfstoffe"
                        },
                        {
                            "system": "http://fhir.de/CodeSystem/ifa/pzn",
                            "code": "2528981",
                            "version": "pzn|1.0.000",
                            "display": "STAMARIL Trockensubstanz mit Lösungsmittel"
                        }
                    ],
                    "text": "Gelbfieberimpfstoff, STAMARIL Trockensubstanz mit Lösungsmittel"
                },
                "patient": {
                    "reference": "Patient/9774f67f-a238-4daf-b4e6-679deeef3811"
                },
                "occurrenceDateTime": "1992-07-16T12:30:02Z",
                "primarySource": true,
                "manufacturer": {
                    "display": "Beispiel-Pharm"
                },
                "lotNumber": "ABCD123419",
                "note": [
                    {
                        "text": "Bei einer ungewöhnlichen Impfreaktion sollte die impfende ärztliche Person benachrichtigt werden. Die ärztlich tätige Person hat, wenn der Verdacht einer gesundheitlichen Schädigung besteht, die über das übliche Ausmaß einer Impfreaktion hinaus geht verpflichtet, den Verdacht dem zuständigen Gesundheitsamt namentlich zu melden (§ 6 Absatz 1 Nr 3 des lnfektionsschutzgesetzes • lfSG) Im Falle eines Impfschadens besteht unter den Voraussetzungen des § 60 Absatz 1 lfSG ein Anspruch auf Entschädigung in entsprechender Anwendung der Vorschriften des Bundesversorgungsgesetzes. Der Antrag ist bei der für die Durchführung des Bundesversorgungsgesetzes zuständigen Behörde (§ 64 Absatz 1 lfSG, i.d.R. 'Versorgungsamt') zu stellen. Weitere Auskünfte erteilt das zuständige Gesundheitsamt."
                    },
                    {
                        "text": "Starke Schwellung der Einstichstelle."
                    }
                ],
                "protocolApplied": [
                    {
                        "extension": [
                            {
                                "url": "https://fhir.kbv.de/StructureDefinition/KBV_EX_MIO_Vaccination_Follow_Up",
                                "valueDateTime": "2001-01-01T12:30:02Z"
                            }
                        ],
                        "targetDisease": [
                            {
                                "coding": [
                                    {
                                        "system": "http://snomed.info/sct",
                                        "version": "http://snomed.info/sct/900000000000207008/version/20200131",
                                        "code": "16541001",
                                        "display": "Yellow fewer (disorder)",
                                        "userSelected": true
                                    }
                                ],
                                "text": "Gelbfieber"
                            }
                        ],
                        "doseNumberString": "unknown"
                    }
                ]
            }
        },
        {
            "fullUrl": "Immunization/immuniz-9",
            "resource": {
                "resourceType": "Immunization",
                "id": "immuniz-9",
                "meta": {
                    "profile": [
                        "https://fhir.kbv.de/StructureDefinition/KBV_PR_MIO_Vaccination_Record_Prime|1.1.0"
                    ]
                },
                "text": {
                    "status": "extensions",
                    "div": "<h1>Vaccination Record Prime</h1>"
                },
                "extension": [
                    {
                        "url": "https://fhir.kbv.de/StructureDefinition/KBV_EX_MIO_Vaccination_Entry_Type",
                        "valueCodeableConcept": {
                            "coding": [
                                {
                                    "system": "https://fhir.kbv.de/CodeSystem/KBV_CS_MIO_Vaccination_Technical_Entry_Type",
                                    "code": "End",
                                    "display": "Eintrag nur digital"
                                }
                            ]
                        }
                    },
                    {
                        "url": "https://fhir.kbv.de/StructureDefinition/KBV_EX_MIO_Vaccination_Attester",
                        "extension": [
                            {
                                "url": "mode",
                                "valueCodeableConcept": {
                                    "coding": [
                                        {
                                            "system": "http://hl7.org/fhir/composition-attestation-mode",
                                            "code": "legal"
                                        }
                                    ]
                                }
                            },
                            {
                                "url": "party",
                                "valueReference": {
                                    "reference": "PractitionerRole/a24c9cd2-c55e-4859-8d41-db419fc9f6b1"
                                }
                            }
                        ]
                    },
                    {
                        "url": "https://fhir.kbv.de/StructureDefinition/KBV_EX_MIO_Vaccination_Enterer",
                        "extension": [
                            {
                                "url": "mode",
                                "valueCodeableConcept": {
                                    "coding": [
                                        {
                                            "system": "http://terminology.hl7.org/CodeSystem/v3-ParticipationType",
                                            "code": "ENT"
                                        }
                                    ]
                                }
                            },
                            {
                                "url": "party",
                                "valueReference": {
                                    "reference": "PractitionerRole/a24c9cd2-c55e-4859-8d41-db419fc9f6b1"
                                }
                            }
                        ]
                    }
                ],
                "status": "completed",
                "vaccineCode": {
                    "coding": [
                        {
                            "system": "http://snomed.info/sct",
                            "version": "http://snomed.info/sct/900000000000207008/version/20200131",
                            "code": "836385002",
                            "display": "Vaccine product containing Yellow fever virus antigen (medicinal product)"
                        },
                        {
                            "system": "http://fhir.de/CodeSystem/dimdi/atc",
                            "version": "atcgm20211",
                            "code": "J07BL",
                            "display": "Gelbfieber-Impfstoffe"
                        },
                        {
                            "system": "http://fhir.de/CodeSystem/ifa/pzn",
                            "code": "2528981",
                            "version": "pzn|1.0.000",
                            "display": "STAMARIL Trockensubstanz mit Lösungsmittel"
                        }
                    ],
                    "text": "Gelbfieberimpfstoff, STAMARIL Trockensubstanz mit Lösungsmittel"
                },
                "patient": {
                    "reference": "Patient/9774f67f-a238-4daf-b4e6-679deeef3811"
                },
                "occurrenceDateTime": "1992-07-16T12:30:02Z",
                "primarySource": true,
                "manufacturer": {
                    "display": "Beispiel-Pharm"
                },
                "lotNumber": "ABCD123419",
                "note": [
                    {
                        "text": "Bei einer ungewöhnlichen Impfreaktion sollte die impfende ärztliche Person benachrichtigt werden. Die ärztlich tätige Person hat, wenn der Verdacht einer gesundheitlichen Schädigung besteht, die über das übliche Ausmaß einer Impfreaktion hinaus geht verpflichtet, den Verdacht dem zuständigen Gesundheitsamt namentlich zu melden (§ 6 Absatz 1 Nr 3 des lnfektionsschutzgesetzes • lfSG) Im Falle eines Impfschadens besteht unter den Voraussetzungen des § 60 Absatz 1 lfSG ein Anspruch auf Entschädigung in entsprechender Anwendung der Vorschriften des Bundesversorgungsgesetzes. Der Antrag ist bei der für die Durchführung des Bundesversorgungsgesetzes zuständigen Behörde (§ 64 Absatz 1 lfSG, i.d.R. 'Versorgungsamt') zu stellen. Weitere Auskünfte erteilt das zuständige Gesundheitsamt."
                    },
                    {
                        "text": "Starke Schwellung der Einstichstelle."
                    }
                ],
                "protocolApplied": [
                    {
                        "extension": [
                            {
                                "url": "https://fhir.kbv.de/StructureDefinition/KBV_EX_MIO_Vaccination_Follow_Up",
                                "valueDateTime": "2001-01-01T12:30:02Z"
                            }
                        ],
                        "targetDisease": [
                            {
                                "coding": [
                                    {
                                        "system": "http://snomed.info/sct",
                                        "version": "http://snomed.info/sct/900000000000207008/version/20200131",
                                        "code": "16541001",
                                        "display": "Yellow fewer (disorder)",
                                        "userSelected": true
                                    }
                                ],
                                "text": "Gelbfieber"
                            }
                        ],
                        "doseNumberString": "unknown"
                    }
                ]
            }
        },

        {
            "fullUrl": "Immunization/immuniz-10",
            "resource": {
                "resourceType": "Immunization",
                "id": "immuniz-10",
                "meta": {
                    "profile": [
                        "https://fhir.kbv.de/StructureDefinition/KBV_PR_MIO_Vaccination_Record_Prime|1.1.0"
                    ]
                },
                "text": {
                    "status": "extensions",
                    "div": "<h1>Vaccination Record Prime</h1>"
                },
                "extension": [
                    {
                        "url": "https://fhir.kbv.de/StructureDefinition/KBV_EX_MIO_Vaccination_Entry_Type",
                        "valueCodeableConcept": {
                            "coding": [
                                {
                                    "system": "https://fhir.kbv.de/CodeSystem/KBV_CS_MIO_Vaccination_Technical_Entry_Type",
                                    "code": "End",
                                    "display": "Eintrag nur digital"
                                }
                            ]
                        }
                    },
                    {
                        "url": "https://fhir.kbv.de/StructureDefinition/KBV_EX_MIO_Vaccination_Attester",
                        "extension": [
                            {
                                "url": "mode",
                                "valueCodeableConcept": {
                                    "coding": [
                                        {
                                            "system": "http://hl7.org/fhir/composition-attestation-mode",
                                            "code": "legal"
                                        }
                                    ]
                                }
                            },
                            {
                                "url": "party",
                                "valueReference": {
                                    "reference": "PractitionerRole/a24c9cd2-c55e-4859-8d41-db419fc9f6b1"
                                }
                            }
                        ]
                    },
                    {
                        "url": "https://fhir.kbv.de/StructureDefinition/KBV_EX_MIO_Vaccination_Enterer",
                        "extension": [
                            {
                                "url": "mode",
                                "valueCodeableConcept": {
                                    "coding": [
                                        {
                                            "system": "http://terminology.hl7.org/CodeSystem/v3-ParticipationType",
                                            "code": "ENT"
                                        }
                                    ]
                                }
                            },
                            {
                                "url": "party",
                                "valueReference": {
                                    "reference": "PractitionerRole/a24c9cd2-c55e-4859-8d41-db419fc9f6b1"
                                }
                            }
                        ]
                    }
                ],
                "status": "completed",
                "vaccineCode": {
                    "coding": [
                        {
                            "system": "http://snomed.info/sct",
                            "version": "http://snomed.info/sct/900000000000207008/version/20200131",
                            "code": "836385002",
                            "display": "Vaccine product containing Yellow fever virus antigen (medicinal product)"
                        },
                        {
                            "system": "http://fhir.de/CodeSystem/dimdi/atc",
                            "version": "atcgm20211",
                            "code": "J07BL",
                            "display": "Gelbfieber-Impfstoffe"
                        },
                        {
                            "system": "http://fhir.de/CodeSystem/ifa/pzn",
                            "code": "2528981",
                            "version": "pzn|1.0.000",
                            "display": "STAMARIL Trockensubstanz mit Lösungsmittel"
                        }
                    ],
                    "text": "Gelbfieberimpfstoff, STAMARIL Trockensubstanz mit Lösungsmittel"
                },
                "patient": {
                    "reference": "Patient/9774f67f-a238-4daf-b4e6-679deeef3811"
                },
                "occurrenceDateTime": "1992-07-16T12:30:02Z",
                "primarySource": true,
                "manufacturer": {
                    "display": "Beispiel-Pharm"
                },
                "lotNumber": "ABCD123419",
                "note": [
                    {
                        "text": "Bei einer ungewöhnlichen Impfreaktion sollte die impfende ärztliche Person benachrichtigt werden. Die ärztlich tätige Person hat, wenn der Verdacht einer gesundheitlichen Schädigung besteht, die über das übliche Ausmaß einer Impfreaktion hinaus geht verpflichtet, den Verdacht dem zuständigen Gesundheitsamt namentlich zu melden (§ 6 Absatz 1 Nr 3 des lnfektionsschutzgesetzes • lfSG) Im Falle eines Impfschadens besteht unter den Voraussetzungen des § 60 Absatz 1 lfSG ein Anspruch auf Entschädigung in entsprechender Anwendung der Vorschriften des Bundesversorgungsgesetzes. Der Antrag ist bei der für die Durchführung des Bundesversorgungsgesetzes zuständigen Behörde (§ 64 Absatz 1 lfSG, i.d.R. 'Versorgungsamt') zu stellen. Weitere Auskünfte erteilt das zuständige Gesundheitsamt."
                    },
                    {
                        "text": "Starke Schwellung der Einstichstelle."
                    }
                ],
                "protocolApplied": [
                    {
                        "extension": [
                            {
                                "url": "https://fhir.kbv.de/StructureDefinition/KBV_EX_MIO_Vaccination_Follow_Up",
                                "valueDateTime": "2001-01-01T12:30:02Z"
                            }
                        ],
                        "targetDisease": [
                            {
                                "coding": [
                                    {
                                        "system": "http://snomed.info/sct",
                                        "version": "http://snomed.info/sct/900000000000207008/version/20200131",
                                        "code": "16541001",
                                        "display": "Yellow fewer (disorder)",
                                        "userSelected": true
                                    }
                                ],
                                "text": "Gelbfieber"
                            }
                        ],
                        "doseNumberString": "unknown"
                    }
                ]
            }
        },
        {
            "fullUrl": "Immunization/immuniz-11",
            "resource": {
                "resourceType": "Immunization",
                "id": "immuniz-11",
                "meta": {
                    "profile": [
                        "https://fhir.kbv.de/StructureDefinition/KBV_PR_MIO_Vaccination_Record_Prime|1.1.0"
                    ]
                },
                "text": {
                    "status": "extensions",
                    "div": "<h1>Vaccination Record Prime</h1>"
                },
                "extension": [
                    {
                        "url": "https://fhir.kbv.de/StructureDefinition/KBV_EX_MIO_Vaccination_Entry_Type",
                        "valueCodeableConcept": {
                            "coding": [
                                {
                                    "system": "https://fhir.kbv.de/CodeSystem/KBV_CS_MIO_Vaccination_Technical_Entry_Type",
                                    "code": "End",
                                    "display": "Eintrag nur digital"
                                }
                            ]
                        }
                    },
                    {
                        "url": "https://fhir.kbv.de/StructureDefinition/KBV_EX_MIO_Vaccination_Attester",
                        "extension": [
                            {
                                "url": "mode",
                                "valueCodeableConcept": {
                                    "coding": [
                                        {
                                            "system": "http://hl7.org/fhir/composition-attestation-mode",
                                            "code": "legal"
                                        }
                                    ]
                                }
                            },
                            {
                                "url": "party",
                                "valueReference": {
                                    "reference": "PractitionerRole/a24c9cd2-c55e-4859-8d41-db419fc9f6b1"
                                }
                            }
                        ]
                    },
                    {
                        "url": "https://fhir.kbv.de/StructureDefinition/KBV_EX_MIO_Vaccination_Enterer",
                        "extension": [
                            {
                                "url": "mode",
                                "valueCodeableConcept": {
                                    "coding": [
                                        {
                                            "system": "http://terminology.hl7.org/CodeSystem/v3-ParticipationType",
                                            "code": "ENT"
                                        }
                                    ]
                                }
                            },
                            {
                                "url": "party",
                                "valueReference": {
                                    "reference": "PractitionerRole/a24c9cd2-c55e-4859-8d41-db419fc9f6b1"
                                }
                            }
                        ]
                    }
                ],
                "status": "completed",
                "vaccineCode": {
                    "coding": [
                        {
                            "system": "http://snomed.info/sct",
                            "version": "http://snomed.info/sct/900000000000207008/version/20200131",
                            "code": "836385002",
                            "display": "Vaccine product containing Yellow fever virus antigen (medicinal product)"
                        },
                        {
                            "system": "http://fhir.de/CodeSystem/dimdi/atc",
                            "version": "atcgm20211",
                            "code": "J07BL",
                            "display": "Gelbfieber-Impfstoffe"
                        },
                        {
                            "system": "http://fhir.de/CodeSystem/ifa/pzn",
                            "code": "2528981",
                            "version": "pzn|1.0.000",
                            "display": "STAMARIL Trockensubstanz mit Lösungsmittel"
                        }
                    ],
                    "text": "Gelbfieberimpfstoff, STAMARIL Trockensubstanz mit Lösungsmittel"
                },
                "patient": {
                    "reference": "Patient/9774f67f-a238-4daf-b4e6-679deeef3811"
                },
                "occurrenceDateTime": "1992-07-16T12:30:02Z",
                "primarySource": true,
                "manufacturer": {
                    "display": "Beispiel-Pharm"
                },
                "lotNumber": "ABCD123419",
                "note": [
                    {
                        "text": "Bei einer ungewöhnlichen Impfreaktion sollte die impfende ärztliche Person benachrichtigt werden. Die ärztlich tätige Person hat, wenn der Verdacht einer gesundheitlichen Schädigung besteht, die über das übliche Ausmaß einer Impfreaktion hinaus geht verpflichtet, den Verdacht dem zuständigen Gesundheitsamt namentlich zu melden (§ 6 Absatz 1 Nr 3 des lnfektionsschutzgesetzes • lfSG) Im Falle eines Impfschadens besteht unter den Voraussetzungen des § 60 Absatz 1 lfSG ein Anspruch auf Entschädigung in entsprechender Anwendung der Vorschriften des Bundesversorgungsgesetzes. Der Antrag ist bei der für die Durchführung des Bundesversorgungsgesetzes zuständigen Behörde (§ 64 Absatz 1 lfSG, i.d.R. 'Versorgungsamt') zu stellen. Weitere Auskünfte erteilt das zuständige Gesundheitsamt."
                    },
                    {
                        "text": "Starke Schwellung der Einstichstelle."
                    }
                ],
                "protocolApplied": [
                    {
                        "extension": [
                            {
                                "url": "https://fhir.kbv.de/StructureDefinition/KBV_EX_MIO_Vaccination_Follow_Up",
                                "valueDateTime": "2001-01-01T12:30:02Z"
                            }
                        ],
                        "targetDisease": [
                            {
                                "coding": [
                                    {
                                        "system": "http://snomed.info/sct",
                                        "version": "http://snomed.info/sct/900000000000207008/version/20200131",
                                        "code": "16541001",
                                        "display": "Yellow fewer (disorder)",
                                        "userSelected": true
                                    }
                                ],
                                "text": "Gelbfieber"
                            }
                        ],
                        "doseNumberString": "unknown"
                    }
                ]
            }
        },
        {
            "fullUrl": "Immunization/immuniz-12",
            "resource": {
                "resourceType": "Immunization",
                "id": "immuniz-12",
                "meta": {
                    "profile": [
                        "https://fhir.kbv.de/StructureDefinition/KBV_PR_MIO_Vaccination_Record_Prime|1.1.0"
                    ]
                },
                "text": {
                    "status": "extensions",
                    "div": "<h1>Vaccination Record Prime</h1>"
                },
                "extension": [
                    {
                        "url": "https://fhir.kbv.de/StructureDefinition/KBV_EX_MIO_Vaccination_Entry_Type",
                        "valueCodeableConcept": {
                            "coding": [
                                {
                                    "system": "https://fhir.kbv.de/CodeSystem/KBV_CS_MIO_Vaccination_Technical_Entry_Type",
                                    "code": "End",
                                    "display": "Eintrag nur digital"
                                }
                            ]
                        }
                    },
                    {
                        "url": "https://fhir.kbv.de/StructureDefinition/KBV_EX_MIO_Vaccination_Attester",
                        "extension": [
                            {
                                "url": "mode",
                                "valueCodeableConcept": {
                                    "coding": [
                                        {
                                            "system": "http://hl7.org/fhir/composition-attestation-mode",
                                            "code": "legal"
                                        }
                                    ]
                                }
                            },
                            {
                                "url": "party",
                                "valueReference": {
                                    "reference": "PractitionerRole/a24c9cd2-c55e-4859-8d41-db419fc9f6b1"
                                }
                            }
                        ]
                    },
                    {
                        "url": "https://fhir.kbv.de/StructureDefinition/KBV_EX_MIO_Vaccination_Enterer",
                        "extension": [
                            {
                                "url": "mode",
                                "valueCodeableConcept": {
                                    "coding": [
                                        {
                                            "system": "http://terminology.hl7.org/CodeSystem/v3-ParticipationType",
                                            "code": "ENT"
                                        }
                                    ]
                                }
                            },
                            {
                                "url": "party",
                                "valueReference": {
                                    "reference": "PractitionerRole/a24c9cd2-c55e-4859-8d41-db419fc9f6b1"
                                }
                            }
                        ]
                    }
                ],
                "status": "completed",
                "vaccineCode": {
                    "coding": [
                        {
                            "system": "http://snomed.info/sct",
                            "version": "http://snomed.info/sct/900000000000207008/version/20200131",
                            "code": "836385002",
                            "display": "Vaccine product containing Yellow fever virus antigen (medicinal product)"
                        },
                        {
                            "system": "http://fhir.de/CodeSystem/dimdi/atc",
                            "version": "atcgm20211",
                            "code": "J07BL",
                            "display": "Gelbfieber-Impfstoffe"
                        },
                        {
                            "system": "http://fhir.de/CodeSystem/ifa/pzn",
                            "code": "2528981",
                            "version": "pzn|1.0.000",
                            "display": "STAMARIL Trockensubstanz mit Lösungsmittel"
                        }
                    ],
                    "text": "Gelbfieberimpfstoff, STAMARIL Trockensubstanz mit Lösungsmittel"
                },
                "patient": {
                    "reference": "Patient/9774f67f-a238-4daf-b4e6-679deeef3811"
                },
                "occurrenceDateTime": "1992-07-16T12:30:02Z",
                "primarySource": true,
                "manufacturer": {
                    "display": "Beispiel-Pharm"
                },
                "lotNumber": "ABCD123419",
                "note": [
                    {
                        "text": "Bei einer ungewöhnlichen Impfreaktion sollte die impfende ärztliche Person benachrichtigt werden. Die ärztlich tätige Person hat, wenn der Verdacht einer gesundheitlichen Schädigung besteht, die über das übliche Ausmaß einer Impfreaktion hinaus geht verpflichtet, den Verdacht dem zuständigen Gesundheitsamt namentlich zu melden (§ 6 Absatz 1 Nr 3 des lnfektionsschutzgesetzes • lfSG) Im Falle eines Impfschadens besteht unter den Voraussetzungen des § 60 Absatz 1 lfSG ein Anspruch auf Entschädigung in entsprechender Anwendung der Vorschriften des Bundesversorgungsgesetzes. Der Antrag ist bei der für die Durchführung des Bundesversorgungsgesetzes zuständigen Behörde (§ 64 Absatz 1 lfSG, i.d.R. 'Versorgungsamt') zu stellen. Weitere Auskünfte erteilt das zuständige Gesundheitsamt."
                    },
                    {
                        "text": "Starke Schwellung der Einstichstelle."
                    }
                ],
                "protocolApplied": [
                    {
                        "extension": [
                            {
                                "url": "https://fhir.kbv.de/StructureDefinition/KBV_EX_MIO_Vaccination_Follow_Up",
                                "valueDateTime": "2001-01-01T12:30:02Z"
                            }
                        ],
                        "targetDisease": [
                            {
                                "coding": [
                                    {
                                        "system": "http://snomed.info/sct",
                                        "version": "http://snomed.info/sct/900000000000207008/version/20200131",
                                        "code": "16541001",
                                        "display": "Yellow fewer (disorder)",
                                        "userSelected": true
                                    }
                                ],
                                "text": "Gelbfieber"
                            }
                        ],
                        "doseNumberString": "unknown"
                    }
                ]
            }
        },
        {
            "fullUrl": "Immunization/immuniz-13",
            "resource": {
                "resourceType": "Immunization",
                "id": "immuniz-13",
                "meta": {
                    "profile": [
                        "https://fhir.kbv.de/StructureDefinition/KBV_PR_MIO_Vaccination_Record_Prime|1.1.0"
                    ]
                },
                "text": {
                    "status": "extensions",
                    "div": "<h1>Vaccination Record Prime</h1>"
                },
                "extension": [
                    {
                        "url": "https://fhir.kbv.de/StructureDefinition/KBV_EX_MIO_Vaccination_Entry_Type",
                        "valueCodeableConcept": {
                            "coding": [
                                {
                                    "system": "https://fhir.kbv.de/CodeSystem/KBV_CS_MIO_Vaccination_Technical_Entry_Type",
                                    "code": "End",
                                    "display": "Eintrag nur digital"
                                }
                            ]
                        }
                    },
                    {
                        "url": "https://fhir.kbv.de/StructureDefinition/KBV_EX_MIO_Vaccination_Attester",
                        "extension": [
                            {
                                "url": "mode",
                                "valueCodeableConcept": {
                                    "coding": [
                                        {
                                            "system": "http://hl7.org/fhir/composition-attestation-mode",
                                            "code": "legal"
                                        }
                                    ]
                                }
                            },
                            {
                                "url": "party",
                                "valueReference": {
                                    "reference": "PractitionerRole/a24c9cd2-c55e-4859-8d41-db419fc9f6b1"
                                }
                            }
                        ]
                    },
                    {
                        "url": "https://fhir.kbv.de/StructureDefinition/KBV_EX_MIO_Vaccination_Enterer",
                        "extension": [
                            {
                                "url": "mode",
                                "valueCodeableConcept": {
                                    "coding": [
                                        {
                                            "system": "http://terminology.hl7.org/CodeSystem/v3-ParticipationType",
                                            "code": "ENT"
                                        }
                                    ]
                                }
                            },
                            {
                                "url": "party",
                                "valueReference": {
                                    "reference": "PractitionerRole/a24c9cd2-c55e-4859-8d41-db419fc9f6b1"
                                }
                            }
                        ]
                    }
                ],
                "status": "completed",
                "vaccineCode": {
                    "coding": [
                        {
                            "system": "http://snomed.info/sct",
                            "version": "http://snomed.info/sct/900000000000207008/version/20200131",
                            "code": "836385002",
                            "display": "Vaccine product containing Yellow fever virus antigen (medicinal product)"
                        },
                        {
                            "system": "http://fhir.de/CodeSystem/dimdi/atc",
                            "version": "atcgm20211",
                            "code": "J07BL",
                            "display": "Gelbfieber-Impfstoffe"
                        },
                        {
                            "system": "http://fhir.de/CodeSystem/ifa/pzn",
                            "code": "2528981",
                            "version": "pzn|1.0.000",
                            "display": "STAMARIL Trockensubstanz mit Lösungsmittel"
                        }
                    ],
                    "text": "Gelbfieberimpfstoff, STAMARIL Trockensubstanz mit Lösungsmittel"
                },
                "patient": {
                    "reference": "Patient/9774f67f-a238-4daf-b4e6-679deeef3811"
                },
                "occurrenceDateTime": "1992-07-16T12:30:02Z",
                "primarySource": true,
                "manufacturer": {
                    "display": "Beispiel-Pharm"
                },
                "lotNumber": "ABCD123419",
                "note": [
                    {
                        "text": "Bei einer ungewöhnlichen Impfreaktion sollte die impfende ärztliche Person benachrichtigt werden. Die ärztlich tätige Person hat, wenn der Verdacht einer gesundheitlichen Schädigung besteht, die über das übliche Ausmaß einer Impfreaktion hinaus geht verpflichtet, den Verdacht dem zuständigen Gesundheitsamt namentlich zu melden (§ 6 Absatz 1 Nr 3 des lnfektionsschutzgesetzes • lfSG) Im Falle eines Impfschadens besteht unter den Voraussetzungen des § 60 Absatz 1 lfSG ein Anspruch auf Entschädigung in entsprechender Anwendung der Vorschriften des Bundesversorgungsgesetzes. Der Antrag ist bei der für die Durchführung des Bundesversorgungsgesetzes zuständigen Behörde (§ 64 Absatz 1 lfSG, i.d.R. 'Versorgungsamt') zu stellen. Weitere Auskünfte erteilt das zuständige Gesundheitsamt."
                    },
                    {
                        "text": "Starke Schwellung der Einstichstelle."
                    }
                ],
                "protocolApplied": [
                    {
                        "extension": [
                            {
                                "url": "https://fhir.kbv.de/StructureDefinition/KBV_EX_MIO_Vaccination_Follow_Up",
                                "valueDateTime": "2001-01-01T12:30:02Z"
                            }
                        ],
                        "targetDisease": [
                            {
                                "coding": [
                                    {
                                        "system": "http://snomed.info/sct",
                                        "version": "http://snomed.info/sct/900000000000207008/version/20200131",
                                        "code": "16541001",
                                        "display": "Yellow fewer (disorder)",
                                        "userSelected": true
                                    }
                                ],
                                "text": "Gelbfieber"
                            }
                        ],
                        "doseNumberString": "unknown"
                    }
                ]
            }
        },
        {
            "fullUrl": "Immunization/immuniz-14",
            "resource": {
                "resourceType": "Immunization",
                "id": "immuniz-14",
                "meta": {
                    "profile": [
                        "https://fhir.kbv.de/StructureDefinition/KBV_PR_MIO_Vaccination_Record_Prime|1.1.0"
                    ]
                },
                "text": {
                    "status": "extensions",
                    "div": "<h1>Vaccination Record Prime</h1>"
                },
                "extension": [
                    {
                        "url": "https://fhir.kbv.de/StructureDefinition/KBV_EX_MIO_Vaccination_Entry_Type",
                        "valueCodeableConcept": {
                            "coding": [
                                {
                                    "system": "https://fhir.kbv.de/CodeSystem/KBV_CS_MIO_Vaccination_Technical_Entry_Type",
                                    "code": "End",
                                    "display": "Eintrag nur digital"
                                }
                            ]
                        }
                    },
                    {
                        "url": "https://fhir.kbv.de/StructureDefinition/KBV_EX_MIO_Vaccination_Attester",
                        "extension": [
                            {
                                "url": "mode",
                                "valueCodeableConcept": {
                                    "coding": [
                                        {
                                            "system": "http://hl7.org/fhir/composition-attestation-mode",
                                            "code": "legal"
                                        }
                                    ]
                                }
                            },
                            {
                                "url": "party",
                                "valueReference": {
                                    "reference": "PractitionerRole/a24c9cd2-c55e-4859-8d41-db419fc9f6b1"
                                }
                            }
                        ]
                    },
                    {
                        "url": "https://fhir.kbv.de/StructureDefinition/KBV_EX_MIO_Vaccination_Enterer",
                        "extension": [
                            {
                                "url": "mode",
                                "valueCodeableConcept": {
                                    "coding": [
                                        {
                                            "system": "http://terminology.hl7.org/CodeSystem/v3-ParticipationType",
                                            "code": "ENT"
                                        }
                                    ]
                                }
                            },
                            {
                                "url": "party",
                                "valueReference": {
                                    "reference": "PractitionerRole/a24c9cd2-c55e-4859-8d41-db419fc9f6b1"
                                }
                            }
                        ]
                    }
                ],
                "status": "completed",
                "vaccineCode": {
                    "coding": [
                        {
                            "system": "http://snomed.info/sct",
                            "version": "http://snomed.info/sct/900000000000207008/version/20200131",
                            "code": "836385002",
                            "display": "Vaccine product containing Yellow fever virus antigen (medicinal product)"
                        },
                        {
                            "system": "http://fhir.de/CodeSystem/dimdi/atc",
                            "version": "atcgm20211",
                            "code": "J07BL",
                            "display": "Gelbfieber-Impfstoffe"
                        },
                        {
                            "system": "http://fhir.de/CodeSystem/ifa/pzn",
                            "code": "2528981",
                            "version": "pzn|1.0.000",
                            "display": "STAMARIL Trockensubstanz mit Lösungsmittel"
                        }
                    ],
                    "text": "Gelbfieberimpfstoff, STAMARIL Trockensubstanz mit Lösungsmittel"
                },
                "patient": {
                    "reference": "Patient/9774f67f-a238-4daf-b4e6-679deeef3811"
                },
                "occurrenceDateTime": "1992-07-16T12:30:02Z",
                "primarySource": true,
                "manufacturer": {
                    "display": "Beispiel-Pharm"
                },
                "lotNumber": "ABCD123419",
                "note": [
                    {
                        "text": "Bei einer ungewöhnlichen Impfreaktion sollte die impfende ärztliche Person benachrichtigt werden. Die ärztlich tätige Person hat, wenn der Verdacht einer gesundheitlichen Schädigung besteht, die über das übliche Ausmaß einer Impfreaktion hinaus geht verpflichtet, den Verdacht dem zuständigen Gesundheitsamt namentlich zu melden (§ 6 Absatz 1 Nr 3 des lnfektionsschutzgesetzes • lfSG) Im Falle eines Impfschadens besteht unter den Voraussetzungen des § 60 Absatz 1 lfSG ein Anspruch auf Entschädigung in entsprechender Anwendung der Vorschriften des Bundesversorgungsgesetzes. Der Antrag ist bei der für die Durchführung des Bundesversorgungsgesetzes zuständigen Behörde (§ 64 Absatz 1 lfSG, i.d.R. 'Versorgungsamt') zu stellen. Weitere Auskünfte erteilt das zuständige Gesundheitsamt."
                    },
                    {
                        "text": "Starke Schwellung der Einstichstelle."
                    }
                ],
                "protocolApplied": [
                    {
                        "extension": [
                            {
                                "url": "https://fhir.kbv.de/StructureDefinition/KBV_EX_MIO_Vaccination_Follow_Up",
                                "valueDateTime": "2001-01-01T12:30:02Z"
                            }
                        ],
                        "targetDisease": [
                            {
                                "coding": [
                                    {
                                        "system": "http://snomed.info/sct",
                                        "version": "http://snomed.info/sct/900000000000207008/version/20200131",
                                        "code": "16541001",
                                        "display": "Yellow fewer (disorder)",
                                        "userSelected": true
                                    }
                                ],
                                "text": "Gelbfieber"
                            }
                        ],
                        "doseNumberString": "unknown"
                    }
                ]
            }
        },
        {
            "fullUrl": "Immunization/immuniz-15",
            "resource": {
                "resourceType": "Immunization",
                "id": "immuniz-15",
                "meta": {
                    "profile": [
                        "https://fhir.kbv.de/StructureDefinition/KBV_PR_MIO_Vaccination_Record_Prime|1.1.0"
                    ]
                },
                "text": {
                    "status": "extensions",
                    "div": "<h1>Vaccination Record Prime</h1>"
                },
                "extension": [
                    {
                        "url": "https://fhir.kbv.de/StructureDefinition/KBV_EX_MIO_Vaccination_Entry_Type",
                        "valueCodeableConcept": {
                            "coding": [
                                {
                                    "system": "https://fhir.kbv.de/CodeSystem/KBV_CS_MIO_Vaccination_Technical_Entry_Type",
                                    "code": "End",
                                    "display": "Eintrag nur digital"
                                }
                            ]
                        }
                    },
                    {
                        "url": "https://fhir.kbv.de/StructureDefinition/KBV_EX_MIO_Vaccination_Attester",
                        "extension": [
                            {
                                "url": "mode",
                                "valueCodeableConcept": {
                                    "coding": [
                                        {
                                            "system": "http://hl7.org/fhir/composition-attestation-mode",
                                            "code": "legal"
                                        }
                                    ]
                                }
                            },
                            {
                                "url": "party",
                                "valueReference": {
                                    "reference": "PractitionerRole/a24c9cd2-c55e-4859-8d41-db419fc9f6b1"
                                }
                            }
                        ]
                    },
                    {
                        "url": "https://fhir.kbv.de/StructureDefinition/KBV_EX_MIO_Vaccination_Enterer",
                        "extension": [
                            {
                                "url": "mode",
                                "valueCodeableConcept": {
                                    "coding": [
                                        {
                                            "system": "http://terminology.hl7.org/CodeSystem/v3-ParticipationType",
                                            "code": "ENT"
                                        }
                                    ]
                                }
                            },
                            {
                                "url": "party",
                                "valueReference": {
                                    "reference": "PractitionerRole/a24c9cd2-c55e-4859-8d41-db419fc9f6b1"
                                }
                            }
                        ]
                    }
                ],
                "status": "completed",
                "vaccineCode": {
                    "coding": [
                        {
                            "system": "http://snomed.info/sct",
                            "version": "http://snomed.info/sct/900000000000207008/version/20200131",
                            "code": "836385002",
                            "display": "Vaccine product containing Yellow fever virus antigen (medicinal product)"
                        },
                        {
                            "system": "http://fhir.de/CodeSystem/dimdi/atc",
                            "version": "atcgm20211",
                            "code": "J07BL",
                            "display": "Gelbfieber-Impfstoffe"
                        },
                        {
                            "system": "http://fhir.de/CodeSystem/ifa/pzn",
                            "code": "2528981",
                            "version": "pzn|1.0.000",
                            "display": "STAMARIL Trockensubstanz mit Lösungsmittel"
                        }
                    ],
                    "text": "Gelbfieberimpfstoff, STAMARIL Trockensubstanz mit Lösungsmittel"
                },
                "patient": {
                    "reference": "Patient/9774f67f-a238-4daf-b4e6-679deeef3811"
                },
                "occurrenceDateTime": "1992-07-16T12:30:02Z",
                "primarySource": true,
                "manufacturer": {
                    "display": "Beispiel-Pharm"
                },
                "lotNumber": "ABCD123419",
                "note": [
                    {
                        "text": "Bei einer ungewöhnlichen Impfreaktion sollte die impfende ärztliche Person benachrichtigt werden. Die ärztlich tätige Person hat, wenn der Verdacht einer gesundheitlichen Schädigung besteht, die über das übliche Ausmaß einer Impfreaktion hinaus geht verpflichtet, den Verdacht dem zuständigen Gesundheitsamt namentlich zu melden (§ 6 Absatz 1 Nr 3 des lnfektionsschutzgesetzes • lfSG) Im Falle eines Impfschadens besteht unter den Voraussetzungen des § 60 Absatz 1 lfSG ein Anspruch auf Entschädigung in entsprechender Anwendung der Vorschriften des Bundesversorgungsgesetzes. Der Antrag ist bei der für die Durchführung des Bundesversorgungsgesetzes zuständigen Behörde (§ 64 Absatz 1 lfSG, i.d.R. 'Versorgungsamt') zu stellen. Weitere Auskünfte erteilt das zuständige Gesundheitsamt."
                    },
                    {
                        "text": "Starke Schwellung der Einstichstelle."
                    }
                ],
                "protocolApplied": [
                    {
                        "extension": [
                            {
                                "url": "https://fhir.kbv.de/StructureDefinition/KBV_EX_MIO_Vaccination_Follow_Up",
                                "valueDateTime": "2001-01-01T12:30:02Z"
                            }
                        ],
                        "targetDisease": [
                            {
                                "coding": [
                                    {
                                        "system": "http://snomed.info/sct",
                                        "version": "http://snomed.info/sct/900000000000207008/version/20200131",
                                        "code": "16541001",
                                        "display": "Yellow fewer (disorder)",
                                        "userSelected": true
                                    }
                                ],
                                "text": "Gelbfieber"
                            }
                        ],
                        "doseNumberString": "unknown"
                    }
                ]
            }
        },
        {
            "fullUrl": "Immunization/immuniz-16",
            "resource": {
                "resourceType": "Immunization",
                "id": "immuniz-16",
                "meta": {
                    "profile": [
                        "https://fhir.kbv.de/StructureDefinition/KBV_PR_MIO_Vaccination_Record_Prime|1.1.0"
                    ]
                },
                "text": {
                    "status": "extensions",
                    "div": "<h1>Vaccination Record Prime</h1>"
                },
                "extension": [
                    {
                        "url": "https://fhir.kbv.de/StructureDefinition/KBV_EX_MIO_Vaccination_Entry_Type",
                        "valueCodeableConcept": {
                            "coding": [
                                {
                                    "system": "https://fhir.kbv.de/CodeSystem/KBV_CS_MIO_Vaccination_Technical_Entry_Type",
                                    "code": "End",
                                    "display": "Eintrag nur digital"
                                }
                            ]
                        }
                    },
                    {
                        "url": "https://fhir.kbv.de/StructureDefinition/KBV_EX_MIO_Vaccination_Attester",
                        "extension": [
                            {
                                "url": "mode",
                                "valueCodeableConcept": {
                                    "coding": [
                                        {
                                            "system": "http://hl7.org/fhir/composition-attestation-mode",
                                            "code": "legal"
                                        }
                                    ]
                                }
                            },
                            {
                                "url": "party",
                                "valueReference": {
                                    "reference": "PractitionerRole/a24c9cd2-c55e-4859-8d41-db419fc9f6b1"
                                }
                            }
                        ]
                    },
                    {
                        "url": "https://fhir.kbv.de/StructureDefinition/KBV_EX_MIO_Vaccination_Enterer",
                        "extension": [
                            {
                                "url": "mode",
                                "valueCodeableConcept": {
                                    "coding": [
                                        {
                                            "system": "http://terminology.hl7.org/CodeSystem/v3-ParticipationType",
                                            "code": "ENT"
                                        }
                                    ]
                                }
                            },
                            {
                                "url": "party",
                                "valueReference": {
                                    "reference": "PractitionerRole/a24c9cd2-c55e-4859-8d41-db419fc9f6b1"
                                }
                            }
                        ]
                    }
                ],
                "status": "completed",
                "vaccineCode": {
                    "coding": [
                        {
                            "system": "http://snomed.info/sct",
                            "version": "http://snomed.info/sct/900000000000207008/version/20200131",
                            "code": "836385002",
                            "display": "Vaccine product containing Yellow fever virus antigen (medicinal product)"
                        },
                        {
                            "system": "http://fhir.de/CodeSystem/dimdi/atc",
                            "version": "atcgm20211",
                            "code": "J07BL",
                            "display": "Gelbfieber-Impfstoffe"
                        },
                        {
                            "system": "http://fhir.de/CodeSystem/ifa/pzn",
                            "code": "2528981",
                            "version": "pzn|1.0.000",
                            "display": "STAMARIL Trockensubstanz mit Lösungsmittel"
                        }
                    ],
                    "text": "Gelbfieberimpfstoff, STAMARIL Trockensubstanz mit Lösungsmittel"
                },
                "patient": {
                    "reference": "Patient/9774f67f-a238-4daf-b4e6-679deeef3811"
                },
                "occurrenceDateTime": "1992-07-16T12:30:02Z",
                "primarySource": true,
                "manufacturer": {
                    "display": "Beispiel-Pharm"
                },
                "lotNumber": "ABCD123419",
                "note": [
                    {
                        "text": "Bei einer ungewöhnlichen Impfreaktion sollte die impfende ärztliche Person benachrichtigt werden. Die ärztlich tätige Person hat, wenn der Verdacht einer gesundheitlichen Schädigung besteht, die über das übliche Ausmaß einer Impfreaktion hinaus geht verpflichtet, den Verdacht dem zuständigen Gesundheitsamt namentlich zu melden (§ 6 Absatz 1 Nr 3 des lnfektionsschutzgesetzes • lfSG) Im Falle eines Impfschadens besteht unter den Voraussetzungen des § 60 Absatz 1 lfSG ein Anspruch auf Entschädigung in entsprechender Anwendung der Vorschriften des Bundesversorgungsgesetzes. Der Antrag ist bei der für die Durchführung des Bundesversorgungsgesetzes zuständigen Behörde (§ 64 Absatz 1 lfSG, i.d.R. 'Versorgungsamt') zu stellen. Weitere Auskünfte erteilt das zuständige Gesundheitsamt."
                    },
                    {
                        "text": "Starke Schwellung der Einstichstelle."
                    }
                ],
                "protocolApplied": [
                    {
                        "extension": [
                            {
                                "url": "https://fhir.kbv.de/StructureDefinition/KBV_EX_MIO_Vaccination_Follow_Up",
                                "valueDateTime": "2001-01-01T12:30:02Z"
                            }
                        ],
                        "targetDisease": [
                            {
                                "coding": [
                                    {
                                        "system": "http://snomed.info/sct",
                                        "version": "http://snomed.info/sct/900000000000207008/version/20200131",
                                        "code": "16541001",
                                        "display": "Yellow fewer (disorder)",
                                        "userSelected": true
                                    }
                                ],
                                "text": "Gelbfieber"
                            }
                        ],
                        "doseNumberString": "unknown"
                    }
                ]
            }
        },
        {
            "fullUrl": "Immunization/immuniz-17",
            "resource": {
                "resourceType": "Immunization",
                "id": "immuniz-17",
                "meta": {
                    "profile": [
                        "https://fhir.kbv.de/StructureDefinition/KBV_PR_MIO_Vaccination_Record_Prime|1.1.0"
                    ]
                },
                "text": {
                    "status": "extensions",
                    "div": "<h1>Vaccination Record Prime</h1>"
                },
                "extension": [
                    {
                        "url": "https://fhir.kbv.de/StructureDefinition/KBV_EX_MIO_Vaccination_Entry_Type",
                        "valueCodeableConcept": {
                            "coding": [
                                {
                                    "system": "https://fhir.kbv.de/CodeSystem/KBV_CS_MIO_Vaccination_Technical_Entry_Type",
                                    "code": "End",
                                    "display": "Eintrag nur digital"
                                }
                            ]
                        }
                    },
                    {
                        "url": "https://fhir.kbv.de/StructureDefinition/KBV_EX_MIO_Vaccination_Attester",
                        "extension": [
                            {
                                "url": "mode",
                                "valueCodeableConcept": {
                                    "coding": [
                                        {
                                            "system": "http://hl7.org/fhir/composition-attestation-mode",
                                            "code": "legal"
                                        }
                                    ]
                                }
                            },
                            {
                                "url": "party",
                                "valueReference": {
                                    "reference": "PractitionerRole/a24c9cd2-c55e-4859-8d41-db419fc9f6b1"
                                }
                            }
                        ]
                    },
                    {
                        "url": "https://fhir.kbv.de/StructureDefinition/KBV_EX_MIO_Vaccination_Enterer",
                        "extension": [
                            {
                                "url": "mode",
                                "valueCodeableConcept": {
                                    "coding": [
                                        {
                                            "system": "http://terminology.hl7.org/CodeSystem/v3-ParticipationType",
                                            "code": "ENT"
                                        }
                                    ]
                                }
                            },
                            {
                                "url": "party",
                                "valueReference": {
                                    "reference": "PractitionerRole/a24c9cd2-c55e-4859-8d41-db419fc9f6b1"
                                }
                            }
                        ]
                    }
                ],
                "status": "completed",
                "vaccineCode": {
                    "coding": [
                        {
                            "system": "http://snomed.info/sct",
                            "version": "http://snomed.info/sct/900000000000207008/version/20200131",
                            "code": "836385002",
                            "display": "Vaccine product containing Yellow fever virus antigen (medicinal product)"
                        },
                        {
                            "system": "http://fhir.de/CodeSystem/dimdi/atc",
                            "version": "atcgm20211",
                            "code": "J07BL",
                            "display": "Gelbfieber-Impfstoffe"
                        },
                        {
                            "system": "http://fhir.de/CodeSystem/ifa/pzn",
                            "code": "2528981",
                            "version": "pzn|1.0.000",
                            "display": "STAMARIL Trockensubstanz mit Lösungsmittel"
                        }
                    ],
                    "text": "Gelbfieberimpfstoff, STAMARIL Trockensubstanz mit Lösungsmittel"
                },
                "patient": {
                    "reference": "Patient/9774f67f-a238-4daf-b4e6-679deeef3811"
                },
                "occurrenceDateTime": "1992-07-16T12:30:02Z",
                "primarySource": true,
                "manufacturer": {
                    "display": "Beispiel-Pharm"
                },
                "lotNumber": "ABCD123419",
                "note": [
                    {
                        "text": "Bei einer ungewöhnlichen Impfreaktion sollte die impfende ärztliche Person benachrichtigt werden. Die ärztlich tätige Person hat, wenn der Verdacht einer gesundheitlichen Schädigung besteht, die über das übliche Ausmaß einer Impfreaktion hinaus geht verpflichtet, den Verdacht dem zuständigen Gesundheitsamt namentlich zu melden (§ 6 Absatz 1 Nr 3 des lnfektionsschutzgesetzes • lfSG) Im Falle eines Impfschadens besteht unter den Voraussetzungen des § 60 Absatz 1 lfSG ein Anspruch auf Entschädigung in entsprechender Anwendung der Vorschriften des Bundesversorgungsgesetzes. Der Antrag ist bei der für die Durchführung des Bundesversorgungsgesetzes zuständigen Behörde (§ 64 Absatz 1 lfSG, i.d.R. 'Versorgungsamt') zu stellen. Weitere Auskünfte erteilt das zuständige Gesundheitsamt."
                    },
                    {
                        "text": "Starke Schwellung der Einstichstelle."
                    }
                ],
                "protocolApplied": [
                    {
                        "extension": [
                            {
                                "url": "https://fhir.kbv.de/StructureDefinition/KBV_EX_MIO_Vaccination_Follow_Up",
                                "valueDateTime": "2001-01-01T12:30:02Z"
                            }
                        ],
                        "targetDisease": [
                            {
                                "coding": [
                                    {
                                        "system": "http://snomed.info/sct",
                                        "version": "http://snomed.info/sct/900000000000207008/version/20200131",
                                        "code": "16541001",
                                        "display": "Yellow fewer (disorder)",
                                        "userSelected": true
                                    }
                                ],
                                "text": "Gelbfieber"
                            }
                        ],
                        "doseNumberString": "unknown"
                    }
                ]
            }
        },
        {
            "fullUrl": "Immunization/immuniz-18",
            "resource": {
                "resourceType": "Immunization",
                "id": "immuniz-18",
                "meta": {
                    "profile": [
                        "https://fhir.kbv.de/StructureDefinition/KBV_PR_MIO_Vaccination_Record_Prime|1.1.0"
                    ]
                },
                "text": {
                    "status": "extensions",
                    "div": "<h1>Vaccination Record Prime</h1>"
                },
                "extension": [
                    {
                        "url": "https://fhir.kbv.de/StructureDefinition/KBV_EX_MIO_Vaccination_Entry_Type",
                        "valueCodeableConcept": {
                            "coding": [
                                {
                                    "system": "https://fhir.kbv.de/CodeSystem/KBV_CS_MIO_Vaccination_Technical_Entry_Type",
                                    "code": "End",
                                    "display": "Eintrag nur digital"
                                }
                            ]
                        }
                    },
                    {
                        "url": "https://fhir.kbv.de/StructureDefinition/KBV_EX_MIO_Vaccination_Attester",
                        "extension": [
                            {
                                "url": "mode",
                                "valueCodeableConcept": {
                                    "coding": [
                                        {
                                            "system": "http://hl7.org/fhir/composition-attestation-mode",
                                            "code": "legal"
                                        }
                                    ]
                                }
                            },
                            {
                                "url": "party",
                                "valueReference": {
                                    "reference": "PractitionerRole/a24c9cd2-c55e-4859-8d41-db419fc9f6b1"
                                }
                            }
                        ]
                    },
                    {
                        "url": "https://fhir.kbv.de/StructureDefinition/KBV_EX_MIO_Vaccination_Enterer",
                        "extension": [
                            {
                                "url": "mode",
                                "valueCodeableConcept": {
                                    "coding": [
                                        {
                                            "system": "http://terminology.hl7.org/CodeSystem/v3-ParticipationType",
                                            "code": "ENT"
                                        }
                                    ]
                                }
                            },
                            {
                                "url": "party",
                                "valueReference": {
                                    "reference": "PractitionerRole/a24c9cd2-c55e-4859-8d41-db419fc9f6b1"
                                }
                            }
                        ]
                    }
                ],
                "status": "completed",
                "vaccineCode": {
                    "coding": [
                        {
                            "system": "http://snomed.info/sct",
                            "version": "http://snomed.info/sct/900000000000207008/version/20200131",
                            "code": "836385002",
                            "display": "Vaccine product containing Yellow fever virus antigen (medicinal product)"
                        },
                        {
                            "system": "http://fhir.de/CodeSystem/dimdi/atc",
                            "version": "atcgm20211",
                            "code": "J07BL",
                            "display": "Gelbfieber-Impfstoffe"
                        },
                        {
                            "system": "http://fhir.de/CodeSystem/ifa/pzn",
                            "code": "2528981",
                            "version": "pzn|1.0.000",
                            "display": "STAMARIL Trockensubstanz mit Lösungsmittel"
                        }
                    ],
                    "text": "Gelbfieberimpfstoff, STAMARIL Trockensubstanz mit Lösungsmittel"
                },
                "patient": {
                    "reference": "Patient/9774f67f-a238-4daf-b4e6-679deeef3811"
                },
                "occurrenceDateTime": "1992-07-16T12:30:02Z",
                "primarySource": true,
                "manufacturer": {
                    "display": "Beispiel-Pharm"
                },
                "lotNumber": "ABCD123419",
                "note": [
                    {
                        "text": "Bei einer ungewöhnlichen Impfreaktion sollte die impfende ärztliche Person benachrichtigt werden. Die ärztlich tätige Person hat, wenn der Verdacht einer gesundheitlichen Schädigung besteht, die über das übliche Ausmaß einer Impfreaktion hinaus geht verpflichtet, den Verdacht dem zuständigen Gesundheitsamt namentlich zu melden (§ 6 Absatz 1 Nr 3 des lnfektionsschutzgesetzes • lfSG) Im Falle eines Impfschadens besteht unter den Voraussetzungen des § 60 Absatz 1 lfSG ein Anspruch auf Entschädigung in entsprechender Anwendung der Vorschriften des Bundesversorgungsgesetzes. Der Antrag ist bei der für die Durchführung des Bundesversorgungsgesetzes zuständigen Behörde (§ 64 Absatz 1 lfSG, i.d.R. 'Versorgungsamt') zu stellen. Weitere Auskünfte erteilt das zuständige Gesundheitsamt."
                    },
                    {
                        "text": "Starke Schwellung der Einstichstelle."
                    }
                ],
                "protocolApplied": [
                    {
                        "extension": [
                            {
                                "url": "https://fhir.kbv.de/StructureDefinition/KBV_EX_MIO_Vaccination_Follow_Up",
                                "valueDateTime": "2001-01-01T12:30:02Z"
                            }
                        ],
                        "targetDisease": [
                            {
                                "coding": [
                                    {
                                        "system": "http://snomed.info/sct",
                                        "version": "http://snomed.info/sct/900000000000207008/version/20200131",
                                        "code": "16541001",
                                        "display": "Yellow fewer (disorder)",
                                        "userSelected": true
                                    }
                                ],
                                "text": "Gelbfieber"
                            }
                        ],
                        "doseNumberString": "unknown"
                    }
                ]
            }
        },
        {
            "fullUrl": "Immunization/immuniz-19",
            "resource": {
                "resourceType": "Immunization",
                "id": "immuniz-19",
                "meta": {
                    "profile": [
                        "https://fhir.kbv.de/StructureDefinition/KBV_PR_MIO_Vaccination_Record_Prime|1.1.0"
                    ]
                },
                "text": {
                    "status": "extensions",
                    "div": "<h1>Vaccination Record Prime</h1>"
                },
                "extension": [
                    {
                        "url": "https://fhir.kbv.de/StructureDefinition/KBV_EX_MIO_Vaccination_Entry_Type",
                        "valueCodeableConcept": {
                            "coding": [
                                {
                                    "system": "https://fhir.kbv.de/CodeSystem/KBV_CS_MIO_Vaccination_Technical_Entry_Type",
                                    "code": "End",
                                    "display": "Eintrag nur digital"
                                }
                            ]
                        }
                    },
                    {
                        "url": "https://fhir.kbv.de/StructureDefinition/KBV_EX_MIO_Vaccination_Attester",
                        "extension": [
                            {
                                "url": "mode",
                                "valueCodeableConcept": {
                                    "coding": [
                                        {
                                            "system": "http://hl7.org/fhir/composition-attestation-mode",
                                            "code": "legal"
                                        }
                                    ]
                                }
                            },
                            {
                                "url": "party",
                                "valueReference": {
                                    "reference": "PractitionerRole/a24c9cd2-c55e-4859-8d41-db419fc9f6b1"
                                }
                            }
                        ]
                    },
                    {
                        "url": "https://fhir.kbv.de/StructureDefinition/KBV_EX_MIO_Vaccination_Enterer",
                        "extension": [
                            {
                                "url": "mode",
                                "valueCodeableConcept": {
                                    "coding": [
                                        {
                                            "system": "http://terminology.hl7.org/CodeSystem/v3-ParticipationType",
                                            "code": "ENT"
                                        }
                                    ]
                                }
                            },
                            {
                                "url": "party",
                                "valueReference": {
                                    "reference": "PractitionerRole/a24c9cd2-c55e-4859-8d41-db419fc9f6b1"
                                }
                            }
                        ]
                    }
                ],
                "status": "completed",
                "vaccineCode": {
                    "coding": [
                        {
                            "system": "http://snomed.info/sct",
                            "version": "http://snomed.info/sct/900000000000207008/version/20200131",
                            "code": "836385002",
                            "display": "Vaccine product containing Yellow fever virus antigen (medicinal product)"
                        },
                        {
                            "system": "http://fhir.de/CodeSystem/dimdi/atc",
                            "version": "atcgm20211",
                            "code": "J07BL",
                            "display": "Gelbfieber-Impfstoffe"
                        },
                        {
                            "system": "http://fhir.de/CodeSystem/ifa/pzn",
                            "code": "2528981",
                            "version": "pzn|1.0.000",
                            "display": "STAMARIL Trockensubstanz mit Lösungsmittel"
                        }
                    ],
                    "text": "Gelbfieberimpfstoff, STAMARIL Trockensubstanz mit Lösungsmittel"
                },
                "patient": {
                    "reference": "Patient/9774f67f-a238-4daf-b4e6-679deeef3811"
                },
                "occurrenceDateTime": "1992-07-16T12:30:02Z",
                "primarySource": true,
                "manufacturer": {
                    "display": "Beispiel-Pharm"
                },
                "lotNumber": "ABCD123419",
                "note": [
                    {
                        "text": "Bei einer ungewöhnlichen Impfreaktion sollte die impfende ärztliche Person benachrichtigt werden. Die ärztlich tätige Person hat, wenn der Verdacht einer gesundheitlichen Schädigung besteht, die über das übliche Ausmaß einer Impfreaktion hinaus geht verpflichtet, den Verdacht dem zuständigen Gesundheitsamt namentlich zu melden (§ 6 Absatz 1 Nr 3 des lnfektionsschutzgesetzes • lfSG) Im Falle eines Impfschadens besteht unter den Voraussetzungen des § 60 Absatz 1 lfSG ein Anspruch auf Entschädigung in entsprechender Anwendung der Vorschriften des Bundesversorgungsgesetzes. Der Antrag ist bei der für die Durchführung des Bundesversorgungsgesetzes zuständigen Behörde (§ 64 Absatz 1 lfSG, i.d.R. 'Versorgungsamt') zu stellen. Weitere Auskünfte erteilt das zuständige Gesundheitsamt."
                    },
                    {
                        "text": "Starke Schwellung der Einstichstelle."
                    }
                ],
                "protocolApplied": [
                    {
                        "extension": [
                            {
                                "url": "https://fhir.kbv.de/StructureDefinition/KBV_EX_MIO_Vaccination_Follow_Up",
                                "valueDateTime": "2001-01-01T12:30:02Z"
                            }
                        ],
                        "targetDisease": [
                            {
                                "coding": [
                                    {
                                        "system": "http://snomed.info/sct",
                                        "version": "http://snomed.info/sct/900000000000207008/version/20200131",
                                        "code": "16541001",
                                        "display": "Yellow fewer (disorder)",
                                        "userSelected": true
                                    }
                                ],
                                "text": "Gelbfieber"
                            }
                        ],
                        "doseNumberString": "unknown"
                    }
                ]
            }
        },

        {
            "fullUrl": "Immunization/immuniz-20",
            "resource": {
                "resourceType": "Immunization",
                "id": "immuniz-20",
                "meta": {
                    "profile": [
                        "https://fhir.kbv.de/StructureDefinition/KBV_PR_MIO_Vaccination_Record_Prime|1.1.0"
                    ]
                },
                "text": {
                    "status": "extensions",
                    "div": "<h1>Vaccination Record Prime</h1>"
                },
                "extension": [
                    {
                        "url": "https://fhir.kbv.de/StructureDefinition/KBV_EX_MIO_Vaccination_Entry_Type",
                        "valueCodeableConcept": {
                            "coding": [
                                {
                                    "system": "https://fhir.kbv.de/CodeSystem/KBV_CS_MIO_Vaccination_Technical_Entry_Type",
                                    "code": "End",
                                    "display": "Eintrag nur digital"
                                }
                            ]
                        }
                    },
                    {
                        "url": "https://fhir.kbv.de/StructureDefinition/KBV_EX_MIO_Vaccination_Attester",
                        "extension": [
                            {
                                "url": "mode",
                                "valueCodeableConcept": {
                                    "coding": [
                                        {
                                            "system": "http://hl7.org/fhir/composition-attestation-mode",
                                            "code": "legal"
                                        }
                                    ]
                                }
                            },
                            {
                                "url": "party",
                                "valueReference": {
                                    "reference": "PractitionerRole/a24c9cd2-c55e-4859-8d41-db419fc9f6b1"
                                }
                            }
                        ]
                    },
                    {
                        "url": "https://fhir.kbv.de/StructureDefinition/KBV_EX_MIO_Vaccination_Enterer",
                        "extension": [
                            {
                                "url": "mode",
                                "valueCodeableConcept": {
                                    "coding": [
                                        {
                                            "system": "http://terminology.hl7.org/CodeSystem/v3-ParticipationType",
                                            "code": "ENT"
                                        }
                                    ]
                                }
                            },
                            {
                                "url": "party",
                                "valueReference": {
                                    "reference": "PractitionerRole/a24c9cd2-c55e-4859-8d41-db419fc9f6b1"
                                }
                            }
                        ]
                    }
                ],
                "status": "completed",
                "vaccineCode": {
                    "coding": [
                        {
                            "system": "http://snomed.info/sct",
                            "version": "http://snomed.info/sct/900000000000207008/version/20200131",
                            "code": "836385002",
                            "display": "Vaccine product containing Yellow fever virus antigen (medicinal product)"
                        },
                        {
                            "system": "http://fhir.de/CodeSystem/dimdi/atc",
                            "version": "atcgm20211",
                            "code": "J07BL",
                            "display": "Gelbfieber-Impfstoffe"
                        },
                        {
                            "system": "http://fhir.de/CodeSystem/ifa/pzn",
                            "code": "2528981",
                            "version": "pzn|1.0.000",
                            "display": "STAMARIL Trockensubstanz mit Lösungsmittel"
                        }
                    ],
                    "text": "Gelbfieberimpfstoff, STAMARIL Trockensubstanz mit Lösungsmittel"
                },
                "patient": {
                    "reference": "Patient/9774f67f-a238-4daf-b4e6-679deeef3811"
                },
                "occurrenceDateTime": "1992-07-16T12:30:02Z",
                "primarySource": true,
                "manufacturer": {
                    "display": "Beispiel-Pharm"
                },
                "lotNumber": "ABCD123419",
                "note": [
                    {
                        "text": "Bei einer ungewöhnlichen Impfreaktion sollte die impfende ärztliche Person benachrichtigt werden. Die ärztlich tätige Person hat, wenn der Verdacht einer gesundheitlichen Schädigung besteht, die über das übliche Ausmaß einer Impfreaktion hinaus geht verpflichtet, den Verdacht dem zuständigen Gesundheitsamt namentlich zu melden (§ 6 Absatz 1 Nr 3 des lnfektionsschutzgesetzes • lfSG) Im Falle eines Impfschadens besteht unter den Voraussetzungen des § 60 Absatz 1 lfSG ein Anspruch auf Entschädigung in entsprechender Anwendung der Vorschriften des Bundesversorgungsgesetzes. Der Antrag ist bei der für die Durchführung des Bundesversorgungsgesetzes zuständigen Behörde (§ 64 Absatz 1 lfSG, i.d.R. 'Versorgungsamt') zu stellen. Weitere Auskünfte erteilt das zuständige Gesundheitsamt."
                    },
                    {
                        "text": "Starke Schwellung der Einstichstelle."
                    }
                ],
                "protocolApplied": [
                    {
                        "extension": [
                            {
                                "url": "https://fhir.kbv.de/StructureDefinition/KBV_EX_MIO_Vaccination_Follow_Up",
                                "valueDateTime": "2001-01-01T12:30:02Z"
                            }
                        ],
                        "targetDisease": [
                            {
                                "coding": [
                                    {
                                        "system": "http://snomed.info/sct",
                                        "version": "http://snomed.info/sct/900000000000207008/version/20200131",
                                        "code": "16541001",
                                        "display": "Yellow fewer (disorder)",
                                        "userSelected": true
                                    }
                                ],
                                "text": "Gelbfieber"
                            }
                        ],
                        "doseNumberString": "unknown"
                    }
                ]
            }
        },
        {
            "fullUrl": "Immunization/immuniz-21",
            "resource": {
                "resourceType": "Immunization",
                "id": "immuniz-21",
                "meta": {
                    "profile": [
                        "https://fhir.kbv.de/StructureDefinition/KBV_PR_MIO_Vaccination_Record_Prime|1.1.0"
                    ]
                },
                "text": {
                    "status": "extensions",
                    "div": "<h1>Vaccination Record Prime</h1>"
                },
                "extension": [
                    {
                        "url": "https://fhir.kbv.de/StructureDefinition/KBV_EX_MIO_Vaccination_Entry_Type",
                        "valueCodeableConcept": {
                            "coding": [
                                {
                                    "system": "https://fhir.kbv.de/CodeSystem/KBV_CS_MIO_Vaccination_Technical_Entry_Type",
                                    "code": "End",
                                    "display": "Eintrag nur digital"
                                }
                            ]
                        }
                    },
                    {
                        "url": "https://fhir.kbv.de/StructureDefinition/KBV_EX_MIO_Vaccination_Attester",
                        "extension": [
                            {
                                "url": "mode",
                                "valueCodeableConcept": {
                                    "coding": [
                                        {
                                            "system": "http://hl7.org/fhir/composition-attestation-mode",
                                            "code": "legal"
                                        }
                                    ]
                                }
                            },
                            {
                                "url": "party",
                                "valueReference": {
                                    "reference": "PractitionerRole/a24c9cd2-c55e-4859-8d41-db419fc9f6b1"
                                }
                            }
                        ]
                    },
                    {
                        "url": "https://fhir.kbv.de/StructureDefinition/KBV_EX_MIO_Vaccination_Enterer",
                        "extension": [
                            {
                                "url": "mode",
                                "valueCodeableConcept": {
                                    "coding": [
                                        {
                                            "system": "http://terminology.hl7.org/CodeSystem/v3-ParticipationType",
                                            "code": "ENT"
                                        }
                                    ]
                                }
                            },
                            {
                                "url": "party",
                                "valueReference": {
                                    "reference": "PractitionerRole/a24c9cd2-c55e-4859-8d41-db419fc9f6b1"
                                }
                            }
                        ]
                    }
                ],
                "status": "completed",
                "vaccineCode": {
                    "coding": [
                        {
                            "system": "http://snomed.info/sct",
                            "version": "http://snomed.info/sct/900000000000207008/version/20200131",
                            "code": "836385002",
                            "display": "Vaccine product containing Yellow fever virus antigen (medicinal product)"
                        },
                        {
                            "system": "http://fhir.de/CodeSystem/dimdi/atc",
                            "version": "atcgm20211",
                            "code": "J07BL",
                            "display": "Gelbfieber-Impfstoffe"
                        },
                        {
                            "system": "http://fhir.de/CodeSystem/ifa/pzn",
                            "code": "2528981",
                            "version": "pzn|1.0.000",
                            "display": "STAMARIL Trockensubstanz mit Lösungsmittel"
                        }
                    ],
                    "text": "Gelbfieberimpfstoff, STAMARIL Trockensubstanz mit Lösungsmittel"
                },
                "patient": {
                    "reference": "Patient/9774f67f-a238-4daf-b4e6-679deeef3811"
                },
                "occurrenceDateTime": "1992-07-16T12:30:02Z",
                "primarySource": true,
                "manufacturer": {
                    "display": "Beispiel-Pharm"
                },
                "lotNumber": "ABCD123419",
                "note": [
                    {
                        "text": "Bei einer ungewöhnlichen Impfreaktion sollte die impfende ärztliche Person benachrichtigt werden. Die ärztlich tätige Person hat, wenn der Verdacht einer gesundheitlichen Schädigung besteht, die über das übliche Ausmaß einer Impfreaktion hinaus geht verpflichtet, den Verdacht dem zuständigen Gesundheitsamt namentlich zu melden (§ 6 Absatz 1 Nr 3 des lnfektionsschutzgesetzes • lfSG) Im Falle eines Impfschadens besteht unter den Voraussetzungen des § 60 Absatz 1 lfSG ein Anspruch auf Entschädigung in entsprechender Anwendung der Vorschriften des Bundesversorgungsgesetzes. Der Antrag ist bei der für die Durchführung des Bundesversorgungsgesetzes zuständigen Behörde (§ 64 Absatz 1 lfSG, i.d.R. 'Versorgungsamt') zu stellen. Weitere Auskünfte erteilt das zuständige Gesundheitsamt."
                    },
                    {
                        "text": "Starke Schwellung der Einstichstelle."
                    }
                ],
                "protocolApplied": [
                    {
                        "extension": [
                            {
                                "url": "https://fhir.kbv.de/StructureDefinition/KBV_EX_MIO_Vaccination_Follow_Up",
                                "valueDateTime": "2001-01-01T12:30:02Z"
                            }
                        ],
                        "targetDisease": [
                            {
                                "coding": [
                                    {
                                        "system": "http://snomed.info/sct",
                                        "version": "http://snomed.info/sct/900000000000207008/version/20200131",
                                        "code": "16541001",
                                        "display": "Yellow fewer (disorder)",
                                        "userSelected": true
                                    }
                                ],
                                "text": "Gelbfieber"
                            }
                        ],
                        "doseNumberString": "unknown"
                    }
                ]
            }
        },
        {
            "fullUrl": "Immunization/immuniz-22",
            "resource": {
                "resourceType": "Immunization",
                "id": "immuniz-22",
                "meta": {
                    "profile": [
                        "https://fhir.kbv.de/StructureDefinition/KBV_PR_MIO_Vaccination_Record_Prime|1.1.0"
                    ]
                },
                "text": {
                    "status": "extensions",
                    "div": "<h1>Vaccination Record Prime</h1>"
                },
                "extension": [
                    {
                        "url": "https://fhir.kbv.de/StructureDefinition/KBV_EX_MIO_Vaccination_Entry_Type",
                        "valueCodeableConcept": {
                            "coding": [
                                {
                                    "system": "https://fhir.kbv.de/CodeSystem/KBV_CS_MIO_Vaccination_Technical_Entry_Type",
                                    "code": "End",
                                    "display": "Eintrag nur digital"
                                }
                            ]
                        }
                    },
                    {
                        "url": "https://fhir.kbv.de/StructureDefinition/KBV_EX_MIO_Vaccination_Attester",
                        "extension": [
                            {
                                "url": "mode",
                                "valueCodeableConcept": {
                                    "coding": [
                                        {
                                            "system": "http://hl7.org/fhir/composition-attestation-mode",
                                            "code": "legal"
                                        }
                                    ]
                                }
                            },
                            {
                                "url": "party",
                                "valueReference": {
                                    "reference": "PractitionerRole/a24c9cd2-c55e-4859-8d41-db419fc9f6b1"
                                }
                            }
                        ]
                    },
                    {
                        "url": "https://fhir.kbv.de/StructureDefinition/KBV_EX_MIO_Vaccination_Enterer",
                        "extension": [
                            {
                                "url": "mode",
                                "valueCodeableConcept": {
                                    "coding": [
                                        {
                                            "system": "http://terminology.hl7.org/CodeSystem/v3-ParticipationType",
                                            "code": "ENT"
                                        }
                                    ]
                                }
                            },
                            {
                                "url": "party",
                                "valueReference": {
                                    "reference": "PractitionerRole/a24c9cd2-c55e-4859-8d41-db419fc9f6b1"
                                }
                            }
                        ]
                    }
                ],
                "status": "completed",
                "vaccineCode": {
                    "coding": [
                        {
                            "system": "http://snomed.info/sct",
                            "version": "http://snomed.info/sct/900000000000207008/version/20200131",
                            "code": "836385002",
                            "display": "Vaccine product containing Yellow fever virus antigen (medicinal product)"
                        },
                        {
                            "system": "http://fhir.de/CodeSystem/dimdi/atc",
                            "version": "atcgm20211",
                            "code": "J07BL",
                            "display": "Gelbfieber-Impfstoffe"
                        },
                        {
                            "system": "http://fhir.de/CodeSystem/ifa/pzn",
                            "code": "2528981",
                            "version": "pzn|1.0.000",
                            "display": "STAMARIL Trockensubstanz mit Lösungsmittel"
                        }
                    ],
                    "text": "Gelbfieberimpfstoff, STAMARIL Trockensubstanz mit Lösungsmittel"
                },
                "patient": {
                    "reference": "Patient/9774f67f-a238-4daf-b4e6-679deeef3811"
                },
                "occurrenceDateTime": "1992-07-16T12:30:02Z",
                "primarySource": true,
                "manufacturer": {
                    "display": "Beispiel-Pharm"
                },
                "lotNumber": "ABCD123419",
                "note": [
                    {
                        "text": "Bei einer ungewöhnlichen Impfreaktion sollte die impfende ärztliche Person benachrichtigt werden. Die ärztlich tätige Person hat, wenn der Verdacht einer gesundheitlichen Schädigung besteht, die über das übliche Ausmaß einer Impfreaktion hinaus geht verpflichtet, den Verdacht dem zuständigen Gesundheitsamt namentlich zu melden (§ 6 Absatz 1 Nr 3 des lnfektionsschutzgesetzes • lfSG) Im Falle eines Impfschadens besteht unter den Voraussetzungen des § 60 Absatz 1 lfSG ein Anspruch auf Entschädigung in entsprechender Anwendung der Vorschriften des Bundesversorgungsgesetzes. Der Antrag ist bei der für die Durchführung des Bundesversorgungsgesetzes zuständigen Behörde (§ 64 Absatz 1 lfSG, i.d.R. 'Versorgungsamt') zu stellen. Weitere Auskünfte erteilt das zuständige Gesundheitsamt."
                    },
                    {
                        "text": "Starke Schwellung der Einstichstelle."
                    }
                ],
                "protocolApplied": [
                    {
                        "extension": [
                            {
                                "url": "https://fhir.kbv.de/StructureDefinition/KBV_EX_MIO_Vaccination_Follow_Up",
                                "valueDateTime": "2001-01-01T12:30:02Z"
                            }
                        ],
                        "targetDisease": [
                            {
                                "coding": [
                                    {
                                        "system": "http://snomed.info/sct",
                                        "version": "http://snomed.info/sct/900000000000207008/version/20200131",
                                        "code": "16541001",
                                        "display": "Yellow fewer (disorder)",
                                        "userSelected": true
                                    }
                                ],
                                "text": "Gelbfieber"
                            }
                        ],
                        "doseNumberString": "unknown"
                    }
                ]
            }
        },
        {
            "fullUrl": "Immunization/immuniz-23",
            "resource": {
                "resourceType": "Immunization",
                "id": "immuniz-23",
                "meta": {
                    "profile": [
                        "https://fhir.kbv.de/StructureDefinition/KBV_PR_MIO_Vaccination_Record_Prime|1.1.0"
                    ]
                },
                "text": {
                    "status": "extensions",
                    "div": "<h1>Vaccination Record Prime</h1>"
                },
                "extension": [
                    {
                        "url": "https://fhir.kbv.de/StructureDefinition/KBV_EX_MIO_Vaccination_Entry_Type",
                        "valueCodeableConcept": {
                            "coding": [
                                {
                                    "system": "https://fhir.kbv.de/CodeSystem/KBV_CS_MIO_Vaccination_Technical_Entry_Type",
                                    "code": "End",
                                    "display": "Eintrag nur digital"
                                }
                            ]
                        }
                    },
                    {
                        "url": "https://fhir.kbv.de/StructureDefinition/KBV_EX_MIO_Vaccination_Attester",
                        "extension": [
                            {
                                "url": "mode",
                                "valueCodeableConcept": {
                                    "coding": [
                                        {
                                            "system": "http://hl7.org/fhir/composition-attestation-mode",
                                            "code": "legal"
                                        }
                                    ]
                                }
                            },
                            {
                                "url": "party",
                                "valueReference": {
                                    "reference": "PractitionerRole/a24c9cd2-c55e-4859-8d41-db419fc9f6b1"
                                }
                            }
                        ]
                    },
                    {
                        "url": "https://fhir.kbv.de/StructureDefinition/KBV_EX_MIO_Vaccination_Enterer",
                        "extension": [
                            {
                                "url": "mode",
                                "valueCodeableConcept": {
                                    "coding": [
                                        {
                                            "system": "http://terminology.hl7.org/CodeSystem/v3-ParticipationType",
                                            "code": "ENT"
                                        }
                                    ]
                                }
                            },
                            {
                                "url": "party",
                                "valueReference": {
                                    "reference": "PractitionerRole/a24c9cd2-c55e-4859-8d41-db419fc9f6b1"
                                }
                            }
                        ]
                    }
                ],
                "status": "completed",
                "vaccineCode": {
                    "coding": [
                        {
                            "system": "http://snomed.info/sct",
                            "version": "http://snomed.info/sct/900000000000207008/version/20200131",
                            "code": "836385002",
                            "display": "Vaccine product containing Yellow fever virus antigen (medicinal product)"
                        },
                        {
                            "system": "http://fhir.de/CodeSystem/dimdi/atc",
                            "version": "atcgm20211",
                            "code": "J07BL",
                            "display": "Gelbfieber-Impfstoffe"
                        },
                        {
                            "system": "http://fhir.de/CodeSystem/ifa/pzn",
                            "code": "2528981",
                            "version": "pzn|1.0.000",
                            "display": "STAMARIL Trockensubstanz mit Lösungsmittel"
                        }
                    ],
                    "text": "Gelbfieberimpfstoff, STAMARIL Trockensubstanz mit Lösungsmittel"
                },
                "patient": {
                    "reference": "Patient/9774f67f-a238-4daf-b4e6-679deeef3811"
                },
                "occurrenceDateTime": "1992-07-16T12:30:02Z",
                "primarySource": true,
                "manufacturer": {
                    "display": "Beispiel-Pharm"
                },
                "lotNumber": "ABCD123419",
                "note": [
                    {
                        "text": "Bei einer ungewöhnlichen Impfreaktion sollte die impfende ärztliche Person benachrichtigt werden. Die ärztlich tätige Person hat, wenn der Verdacht einer gesundheitlichen Schädigung besteht, die über das übliche Ausmaß einer Impfreaktion hinaus geht verpflichtet, den Verdacht dem zuständigen Gesundheitsamt namentlich zu melden (§ 6 Absatz 1 Nr 3 des lnfektionsschutzgesetzes • lfSG) Im Falle eines Impfschadens besteht unter den Voraussetzungen des § 60 Absatz 1 lfSG ein Anspruch auf Entschädigung in entsprechender Anwendung der Vorschriften des Bundesversorgungsgesetzes. Der Antrag ist bei der für die Durchführung des Bundesversorgungsgesetzes zuständigen Behörde (§ 64 Absatz 1 lfSG, i.d.R. 'Versorgungsamt') zu stellen. Weitere Auskünfte erteilt das zuständige Gesundheitsamt."
                    },
                    {
                        "text": "Starke Schwellung der Einstichstelle."
                    }
                ],
                "protocolApplied": [
                    {
                        "extension": [
                            {
                                "url": "https://fhir.kbv.de/StructureDefinition/KBV_EX_MIO_Vaccination_Follow_Up",
                                "valueDateTime": "2001-01-01T12:30:02Z"
                            }
                        ],
                        "targetDisease": [
                            {
                                "coding": [
                                    {
                                        "system": "http://snomed.info/sct",
                                        "version": "http://snomed.info/sct/900000000000207008/version/20200131",
                                        "code": "16541001",
                                        "display": "Yellow fewer (disorder)",
                                        "userSelected": true
                                    }
                                ],
                                "text": "Gelbfieber"
                            }
                        ],
                        "doseNumberString": "unknown"
                    }
                ]
            }
        },
        {
            "fullUrl": "Immunization/immuniz-24",
            "resource": {
                "resourceType": "Immunization",
                "id": "immuniz-24",
                "meta": {
                    "profile": [
                        "https://fhir.kbv.de/StructureDefinition/KBV_PR_MIO_Vaccination_Record_Prime|1.1.0"
                    ]
                },
                "text": {
                    "status": "extensions",
                    "div": "<h1>Vaccination Record Prime</h1>"
                },
                "extension": [
                    {
                        "url": "https://fhir.kbv.de/StructureDefinition/KBV_EX_MIO_Vaccination_Entry_Type",
                        "valueCodeableConcept": {
                            "coding": [
                                {
                                    "system": "https://fhir.kbv.de/CodeSystem/KBV_CS_MIO_Vaccination_Technical_Entry_Type",
                                    "code": "End",
                                    "display": "Eintrag nur digital"
                                }
                            ]
                        }
                    },
                    {
                        "url": "https://fhir.kbv.de/StructureDefinition/KBV_EX_MIO_Vaccination_Attester",
                        "extension": [
                            {
                                "url": "mode",
                                "valueCodeableConcept": {
                                    "coding": [
                                        {
                                            "system": "http://hl7.org/fhir/composition-attestation-mode",
                                            "code": "legal"
                                        }
                                    ]
                                }
                            },
                            {
                                "url": "party",
                                "valueReference": {
                                    "reference": "PractitionerRole/a24c9cd2-c55e-4859-8d41-db419fc9f6b1"
                                }
                            }
                        ]
                    },
                    {
                        "url": "https://fhir.kbv.de/StructureDefinition/KBV_EX_MIO_Vaccination_Enterer",
                        "extension": [
                            {
                                "url": "mode",
                                "valueCodeableConcept": {
                                    "coding": [
                                        {
                                            "system": "http://terminology.hl7.org/CodeSystem/v3-ParticipationType",
                                            "code": "ENT"
                                        }
                                    ]
                                }
                            },
                            {
                                "url": "party",
                                "valueReference": {
                                    "reference": "PractitionerRole/a24c9cd2-c55e-4859-8d41-db419fc9f6b1"
                                }
                            }
                        ]
                    }
                ],
                "status": "completed",
                "vaccineCode": {
                    "coding": [
                        {
                            "system": "http://snomed.info/sct",
                            "version": "http://snomed.info/sct/900000000000207008/version/20200131",
                            "code": "836385002",
                            "display": "Vaccine product containing Yellow fever virus antigen (medicinal product)"
                        },
                        {
                            "system": "http://fhir.de/CodeSystem/dimdi/atc",
                            "version": "atcgm20211",
                            "code": "J07BL",
                            "display": "Gelbfieber-Impfstoffe"
                        },
                        {
                            "system": "http://fhir.de/CodeSystem/ifa/pzn",
                            "code": "2528981",
                            "version": "pzn|1.0.000",
                            "display": "STAMARIL Trockensubstanz mit Lösungsmittel"
                        }
                    ],
                    "text": "Gelbfieberimpfstoff, STAMARIL Trockensubstanz mit Lösungsmittel"
                },
                "patient": {
                    "reference": "Patient/9774f67f-a238-4daf-b4e6-679deeef3811"
                },
                "occurrenceDateTime": "1992-07-16T12:30:02Z",
                "primarySource": true,
                "manufacturer": {
                    "display": "Beispiel-Pharm"
                },
                "lotNumber": "ABCD123419",
                "note": [
                    {
                        "text": "Bei einer ungewöhnlichen Impfreaktion sollte die impfende ärztliche Person benachrichtigt werden. Die ärztlich tätige Person hat, wenn der Verdacht einer gesundheitlichen Schädigung besteht, die über das übliche Ausmaß einer Impfreaktion hinaus geht verpflichtet, den Verdacht dem zuständigen Gesundheitsamt namentlich zu melden (§ 6 Absatz 1 Nr 3 des lnfektionsschutzgesetzes • lfSG) Im Falle eines Impfschadens besteht unter den Voraussetzungen des § 60 Absatz 1 lfSG ein Anspruch auf Entschädigung in entsprechender Anwendung der Vorschriften des Bundesversorgungsgesetzes. Der Antrag ist bei der für die Durchführung des Bundesversorgungsgesetzes zuständigen Behörde (§ 64 Absatz 1 lfSG, i.d.R. 'Versorgungsamt') zu stellen. Weitere Auskünfte erteilt das zuständige Gesundheitsamt."
                    },
                    {
                        "text": "Starke Schwellung der Einstichstelle."
                    }
                ],
                "protocolApplied": [
                    {
                        "extension": [
                            {
                                "url": "https://fhir.kbv.de/StructureDefinition/KBV_EX_MIO_Vaccination_Follow_Up",
                                "valueDateTime": "2001-01-01T12:30:02Z"
                            }
                        ],
                        "targetDisease": [
                            {
                                "coding": [
                                    {
                                        "system": "http://snomed.info/sct",
                                        "version": "http://snomed.info/sct/900000000000207008/version/20200131",
                                        "code": "16541001",
                                        "display": "Yellow fewer (disorder)",
                                        "userSelected": true
                                    }
                                ],
                                "text": "Gelbfieber"
                            }
                        ],
                        "doseNumberString": "unknown"
                    }
                ]
            }
        },
        {
            "fullUrl": "Immunization/immuniz-25",
            "resource": {
                "resourceType": "Immunization",
                "id": "immuniz-25",
                "meta": {
                    "profile": [
                        "https://fhir.kbv.de/StructureDefinition/KBV_PR_MIO_Vaccination_Record_Prime|1.1.0"
                    ]
                },
                "text": {
                    "status": "extensions",
                    "div": "<h1>Vaccination Record Prime</h1>"
                },
                "extension": [
                    {
                        "url": "https://fhir.kbv.de/StructureDefinition/KBV_EX_MIO_Vaccination_Entry_Type",
                        "valueCodeableConcept": {
                            "coding": [
                                {
                                    "system": "https://fhir.kbv.de/CodeSystem/KBV_CS_MIO_Vaccination_Technical_Entry_Type",
                                    "code": "End",
                                    "display": "Eintrag nur digital"
                                }
                            ]
                        }
                    },
                    {
                        "url": "https://fhir.kbv.de/StructureDefinition/KBV_EX_MIO_Vaccination_Attester",
                        "extension": [
                            {
                                "url": "mode",
                                "valueCodeableConcept": {
                                    "coding": [
                                        {
                                            "system": "http://hl7.org/fhir/composition-attestation-mode",
                                            "code": "legal"
                                        }
                                    ]
                                }
                            },
                            {
                                "url": "party",
                                "valueReference": {
                                    "reference": "PractitionerRole/a24c9cd2-c55e-4859-8d41-db419fc9f6b1"
                                }
                            }
                        ]
                    },
                    {
                        "url": "https://fhir.kbv.de/StructureDefinition/KBV_EX_MIO_Vaccination_Enterer",
                        "extension": [
                            {
                                "url": "mode",
                                "valueCodeableConcept": {
                                    "coding": [
                                        {
                                            "system": "http://terminology.hl7.org/CodeSystem/v3-ParticipationType",
                                            "code": "ENT"
                                        }
                                    ]
                                }
                            },
                            {
                                "url": "party",
                                "valueReference": {
                                    "reference": "PractitionerRole/a24c9cd2-c55e-4859-8d41-db419fc9f6b1"
                                }
                            }
                        ]
                    }
                ],
                "status": "completed",
                "vaccineCode": {
                    "coding": [
                        {
                            "system": "http://snomed.info/sct",
                            "version": "http://snomed.info/sct/900000000000207008/version/20200131",
                            "code": "836385002",
                            "display": "Vaccine product containing Yellow fever virus antigen (medicinal product)"
                        },
                        {
                            "system": "http://fhir.de/CodeSystem/dimdi/atc",
                            "version": "atcgm20211",
                            "code": "J07BL",
                            "display": "Gelbfieber-Impfstoffe"
                        },
                        {
                            "system": "http://fhir.de/CodeSystem/ifa/pzn",
                            "code": "2528981",
                            "version": "pzn|1.0.000",
                            "display": "STAMARIL Trockensubstanz mit Lösungsmittel"
                        }
                    ],
                    "text": "Gelbfieberimpfstoff, STAMARIL Trockensubstanz mit Lösungsmittel"
                },
                "patient": {
                    "reference": "Patient/9774f67f-a238-4daf-b4e6-679deeef3811"
                },
                "occurrenceDateTime": "1992-07-16T12:30:02Z",
                "primarySource": true,
                "manufacturer": {
                    "display": "Beispiel-Pharm"
                },
                "lotNumber": "ABCD123419",
                "note": [
                    {
                        "text": "Bei einer ungewöhnlichen Impfreaktion sollte die impfende ärztliche Person benachrichtigt werden. Die ärztlich tätige Person hat, wenn der Verdacht einer gesundheitlichen Schädigung besteht, die über das übliche Ausmaß einer Impfreaktion hinaus geht verpflichtet, den Verdacht dem zuständigen Gesundheitsamt namentlich zu melden (§ 6 Absatz 1 Nr 3 des lnfektionsschutzgesetzes • lfSG) Im Falle eines Impfschadens besteht unter den Voraussetzungen des § 60 Absatz 1 lfSG ein Anspruch auf Entschädigung in entsprechender Anwendung der Vorschriften des Bundesversorgungsgesetzes. Der Antrag ist bei der für die Durchführung des Bundesversorgungsgesetzes zuständigen Behörde (§ 64 Absatz 1 lfSG, i.d.R. 'Versorgungsamt') zu stellen. Weitere Auskünfte erteilt das zuständige Gesundheitsamt."
                    },
                    {
                        "text": "Starke Schwellung der Einstichstelle."
                    }
                ],
                "protocolApplied": [
                    {
                        "extension": [
                            {
                                "url": "https://fhir.kbv.de/StructureDefinition/KBV_EX_MIO_Vaccination_Follow_Up",
                                "valueDateTime": "2001-01-01T12:30:02Z"
                            }
                        ],
                        "targetDisease": [
                            {
                                "coding": [
                                    {
                                        "system": "http://snomed.info/sct",
                                        "version": "http://snomed.info/sct/900000000000207008/version/20200131",
                                        "code": "16541001",
                                        "display": "Yellow fewer (disorder)",
                                        "userSelected": true
                                    }
                                ],
                                "text": "Gelbfieber"
                            }
                        ],
                        "doseNumberString": "unknown"
                    }
                ]
            }
        },
        {
            "fullUrl": "Immunization/immuniz-26",
            "resource": {
                "resourceType": "Immunization",
                "id": "immuniz-26",
                "meta": {
                    "profile": [
                        "https://fhir.kbv.de/StructureDefinition/KBV_PR_MIO_Vaccination_Record_Prime|1.1.0"
                    ]
                },
                "text": {
                    "status": "extensions",
                    "div": "<h1>Vaccination Record Prime</h1>"
                },
                "extension": [
                    {
                        "url": "https://fhir.kbv.de/StructureDefinition/KBV_EX_MIO_Vaccination_Entry_Type",
                        "valueCodeableConcept": {
                            "coding": [
                                {
                                    "system": "https://fhir.kbv.de/CodeSystem/KBV_CS_MIO_Vaccination_Technical_Entry_Type",
                                    "code": "End",
                                    "display": "Eintrag nur digital"
                                }
                            ]
                        }
                    },
                    {
                        "url": "https://fhir.kbv.de/StructureDefinition/KBV_EX_MIO_Vaccination_Attester",
                        "extension": [
                            {
                                "url": "mode",
                                "valueCodeableConcept": {
                                    "coding": [
                                        {
                                            "system": "http://hl7.org/fhir/composition-attestation-mode",
                                            "code": "legal"
                                        }
                                    ]
                                }
                            },
                            {
                                "url": "party",
                                "valueReference": {
                                    "reference": "PractitionerRole/a24c9cd2-c55e-4859-8d41-db419fc9f6b1"
                                }
                            }
                        ]
                    },
                    {
                        "url": "https://fhir.kbv.de/StructureDefinition/KBV_EX_MIO_Vaccination_Enterer",
                        "extension": [
                            {
                                "url": "mode",
                                "valueCodeableConcept": {
                                    "coding": [
                                        {
                                            "system": "http://terminology.hl7.org/CodeSystem/v3-ParticipationType",
                                            "code": "ENT"
                                        }
                                    ]
                                }
                            },
                            {
                                "url": "party",
                                "valueReference": {
                                    "reference": "PractitionerRole/a24c9cd2-c55e-4859-8d41-db419fc9f6b1"
                                }
                            }
                        ]
                    }
                ],
                "status": "completed",
                "vaccineCode": {
                    "coding": [
                        {
                            "system": "http://snomed.info/sct",
                            "version": "http://snomed.info/sct/900000000000207008/version/20200131",
                            "code": "836385002",
                            "display": "Vaccine product containing Yellow fever virus antigen (medicinal product)"
                        },
                        {
                            "system": "http://fhir.de/CodeSystem/dimdi/atc",
                            "version": "atcgm20211",
                            "code": "J07BL",
                            "display": "Gelbfieber-Impfstoffe"
                        },
                        {
                            "system": "http://fhir.de/CodeSystem/ifa/pzn",
                            "code": "2528981",
                            "version": "pzn|1.0.000",
                            "display": "STAMARIL Trockensubstanz mit Lösungsmittel"
                        }
                    ],
                    "text": "Gelbfieberimpfstoff, STAMARIL Trockensubstanz mit Lösungsmittel"
                },
                "patient": {
                    "reference": "Patient/9774f67f-a238-4daf-b4e6-679deeef3811"
                },
                "occurrenceDateTime": "1992-07-16T12:30:02Z",
                "primarySource": true,
                "manufacturer": {
                    "display": "Beispiel-Pharm"
                },
                "lotNumber": "ABCD123419",
                "note": [
                    {
                        "text": "Bei einer ungewöhnlichen Impfreaktion sollte die impfende ärztliche Person benachrichtigt werden. Die ärztlich tätige Person hat, wenn der Verdacht einer gesundheitlichen Schädigung besteht, die über das übliche Ausmaß einer Impfreaktion hinaus geht verpflichtet, den Verdacht dem zuständigen Gesundheitsamt namentlich zu melden (§ 6 Absatz 1 Nr 3 des lnfektionsschutzgesetzes • lfSG) Im Falle eines Impfschadens besteht unter den Voraussetzungen des § 60 Absatz 1 lfSG ein Anspruch auf Entschädigung in entsprechender Anwendung der Vorschriften des Bundesversorgungsgesetzes. Der Antrag ist bei der für die Durchführung des Bundesversorgungsgesetzes zuständigen Behörde (§ 64 Absatz 1 lfSG, i.d.R. 'Versorgungsamt') zu stellen. Weitere Auskünfte erteilt das zuständige Gesundheitsamt."
                    },
                    {
                        "text": "Starke Schwellung der Einstichstelle."
                    }
                ],
                "protocolApplied": [
                    {
                        "extension": [
                            {
                                "url": "https://fhir.kbv.de/StructureDefinition/KBV_EX_MIO_Vaccination_Follow_Up",
                                "valueDateTime": "2001-01-01T12:30:02Z"
                            }
                        ],
                        "targetDisease": [
                            {
                                "coding": [
                                    {
                                        "system": "http://snomed.info/sct",
                                        "version": "http://snomed.info/sct/900000000000207008/version/20200131",
                                        "code": "16541001",
                                        "display": "Yellow fewer (disorder)",
                                        "userSelected": true
                                    }
                                ],
                                "text": "Gelbfieber"
                            }
                        ],
                        "doseNumberString": "unknown"
                    }
                ]
            }
        },
        {
            "fullUrl": "Immunization/immuniz-27",
            "resource": {
                "resourceType": "Immunization",
                "id": "immuniz-27",
                "meta": {
                    "profile": [
                        "https://fhir.kbv.de/StructureDefinition/KBV_PR_MIO_Vaccination_Record_Prime|1.1.0"
                    ]
                },
                "text": {
                    "status": "extensions",
                    "div": "<h1>Vaccination Record Prime</h1>"
                },
                "extension": [
                    {
                        "url": "https://fhir.kbv.de/StructureDefinition/KBV_EX_MIO_Vaccination_Entry_Type",
                        "valueCodeableConcept": {
                            "coding": [
                                {
                                    "system": "https://fhir.kbv.de/CodeSystem/KBV_CS_MIO_Vaccination_Technical_Entry_Type",
                                    "code": "End",
                                    "display": "Eintrag nur digital"
                                }
                            ]
                        }
                    },
                    {
                        "url": "https://fhir.kbv.de/StructureDefinition/KBV_EX_MIO_Vaccination_Attester",
                        "extension": [
                            {
                                "url": "mode",
                                "valueCodeableConcept": {
                                    "coding": [
                                        {
                                            "system": "http://hl7.org/fhir/composition-attestation-mode",
                                            "code": "legal"
                                        }
                                    ]
                                }
                            },
                            {
                                "url": "party",
                                "valueReference": {
                                    "reference": "PractitionerRole/a24c9cd2-c55e-4859-8d41-db419fc9f6b1"
                                }
                            }
                        ]
                    },
                    {
                        "url": "https://fhir.kbv.de/StructureDefinition/KBV_EX_MIO_Vaccination_Enterer",
                        "extension": [
                            {
                                "url": "mode",
                                "valueCodeableConcept": {
                                    "coding": [
                                        {
                                            "system": "http://terminology.hl7.org/CodeSystem/v3-ParticipationType",
                                            "code": "ENT"
                                        }
                                    ]
                                }
                            },
                            {
                                "url": "party",
                                "valueReference": {
                                    "reference": "PractitionerRole/a24c9cd2-c55e-4859-8d41-db419fc9f6b1"
                                }
                            }
                        ]
                    }
                ],
                "status": "completed",
                "vaccineCode": {
                    "coding": [
                        {
                            "system": "http://snomed.info/sct",
                            "version": "http://snomed.info/sct/900000000000207008/version/20200131",
                            "code": "836385002",
                            "display": "Vaccine product containing Yellow fever virus antigen (medicinal product)"
                        },
                        {
                            "system": "http://fhir.de/CodeSystem/dimdi/atc",
                            "version": "atcgm20211",
                            "code": "J07BL",
                            "display": "Gelbfieber-Impfstoffe"
                        },
                        {
                            "system": "http://fhir.de/CodeSystem/ifa/pzn",
                            "code": "2528981",
                            "version": "pzn|1.0.000",
                            "display": "STAMARIL Trockensubstanz mit Lösungsmittel"
                        }
                    ],
                    "text": "Gelbfieberimpfstoff, STAMARIL Trockensubstanz mit Lösungsmittel"
                },
                "patient": {
                    "reference": "Patient/9774f67f-a238-4daf-b4e6-679deeef3811"
                },
                "occurrenceDateTime": "1992-07-16T12:30:02Z",
                "primarySource": true,
                "manufacturer": {
                    "display": "Beispiel-Pharm"
                },
                "lotNumber": "ABCD123419",
                "note": [
                    {
                        "text": "Bei einer ungewöhnlichen Impfreaktion sollte die impfende ärztliche Person benachrichtigt werden. Die ärztlich tätige Person hat, wenn der Verdacht einer gesundheitlichen Schädigung besteht, die über das übliche Ausmaß einer Impfreaktion hinaus geht verpflichtet, den Verdacht dem zuständigen Gesundheitsamt namentlich zu melden (§ 6 Absatz 1 Nr 3 des lnfektionsschutzgesetzes • lfSG) Im Falle eines Impfschadens besteht unter den Voraussetzungen des § 60 Absatz 1 lfSG ein Anspruch auf Entschädigung in entsprechender Anwendung der Vorschriften des Bundesversorgungsgesetzes. Der Antrag ist bei der für die Durchführung des Bundesversorgungsgesetzes zuständigen Behörde (§ 64 Absatz 1 lfSG, i.d.R. 'Versorgungsamt') zu stellen. Weitere Auskünfte erteilt das zuständige Gesundheitsamt."
                    },
                    {
                        "text": "Starke Schwellung der Einstichstelle."
                    }
                ],
                "protocolApplied": [
                    {
                        "extension": [
                            {
                                "url": "https://fhir.kbv.de/StructureDefinition/KBV_EX_MIO_Vaccination_Follow_Up",
                                "valueDateTime": "2001-01-01T12:30:02Z"
                            }
                        ],
                        "targetDisease": [
                            {
                                "coding": [
                                    {
                                        "system": "http://snomed.info/sct",
                                        "version": "http://snomed.info/sct/900000000000207008/version/20200131",
                                        "code": "16541001",
                                        "display": "Yellow fewer (disorder)",
                                        "userSelected": true
                                    }
                                ],
                                "text": "Gelbfieber"
                            }
                        ],
                        "doseNumberString": "unknown"
                    }
                ]
            }
        },
        {
            "fullUrl": "Immunization/immuniz-28",
            "resource": {
                "resourceType": "Immunization",
                "id": "immuniz-28",
                "meta": {
                    "profile": [
                        "https://fhir.kbv.de/StructureDefinition/KBV_PR_MIO_Vaccination_Record_Prime|1.1.0"
                    ]
                },
                "text": {
                    "status": "extensions",
                    "div": "<h1>Vaccination Record Prime</h1>"
                },
                "extension": [
                    {
                        "url": "https://fhir.kbv.de/StructureDefinition/KBV_EX_MIO_Vaccination_Entry_Type",
                        "valueCodeableConcept": {
                            "coding": [
                                {
                                    "system": "https://fhir.kbv.de/CodeSystem/KBV_CS_MIO_Vaccination_Technical_Entry_Type",
                                    "code": "End",
                                    "display": "Eintrag nur digital"
                                }
                            ]
                        }
                    },
                    {
                        "url": "https://fhir.kbv.de/StructureDefinition/KBV_EX_MIO_Vaccination_Attester",
                        "extension": [
                            {
                                "url": "mode",
                                "valueCodeableConcept": {
                                    "coding": [
                                        {
                                            "system": "http://hl7.org/fhir/composition-attestation-mode",
                                            "code": "legal"
                                        }
                                    ]
                                }
                            },
                            {
                                "url": "party",
                                "valueReference": {
                                    "reference": "PractitionerRole/a24c9cd2-c55e-4859-8d41-db419fc9f6b1"
                                }
                            }
                        ]
                    },
                    {
                        "url": "https://fhir.kbv.de/StructureDefinition/KBV_EX_MIO_Vaccination_Enterer",
                        "extension": [
                            {
                                "url": "mode",
                                "valueCodeableConcept": {
                                    "coding": [
                                        {
                                            "system": "http://terminology.hl7.org/CodeSystem/v3-ParticipationType",
                                            "code": "ENT"
                                        }
                                    ]
                                }
                            },
                            {
                                "url": "party",
                                "valueReference": {
                                    "reference": "PractitionerRole/a24c9cd2-c55e-4859-8d41-db419fc9f6b1"
                                }
                            }
                        ]
                    }
                ],
                "status": "completed",
                "vaccineCode": {
                    "coding": [
                        {
                            "system": "http://snomed.info/sct",
                            "version": "http://snomed.info/sct/900000000000207008/version/20200131",
                            "code": "836385002",
                            "display": "Vaccine product containing Yellow fever virus antigen (medicinal product)"
                        },
                        {
                            "system": "http://fhir.de/CodeSystem/dimdi/atc",
                            "version": "atcgm20211",
                            "code": "J07BL",
                            "display": "Gelbfieber-Impfstoffe"
                        },
                        {
                            "system": "http://fhir.de/CodeSystem/ifa/pzn",
                            "code": "2528981",
                            "version": "pzn|1.0.000",
                            "display": "STAMARIL Trockensubstanz mit Lösungsmittel"
                        }
                    ],
                    "text": "Gelbfieberimpfstoff, STAMARIL Trockensubstanz mit Lösungsmittel"
                },
                "patient": {
                    "reference": "Patient/9774f67f-a238-4daf-b4e6-679deeef3811"
                },
                "occurrenceDateTime": "1992-07-16T12:30:02Z",
                "primarySource": true,
                "manufacturer": {
                    "display": "Beispiel-Pharm"
                },
                "lotNumber": "ABCD123419",
                "note": [
                    {
                        "text": "Bei einer ungewöhnlichen Impfreaktion sollte die impfende ärztliche Person benachrichtigt werden. Die ärztlich tätige Person hat, wenn der Verdacht einer gesundheitlichen Schädigung besteht, die über das übliche Ausmaß einer Impfreaktion hinaus geht verpflichtet, den Verdacht dem zuständigen Gesundheitsamt namentlich zu melden (§ 6 Absatz 1 Nr 3 des lnfektionsschutzgesetzes • lfSG) Im Falle eines Impfschadens besteht unter den Voraussetzungen des § 60 Absatz 1 lfSG ein Anspruch auf Entschädigung in entsprechender Anwendung der Vorschriften des Bundesversorgungsgesetzes. Der Antrag ist bei der für die Durchführung des Bundesversorgungsgesetzes zuständigen Behörde (§ 64 Absatz 1 lfSG, i.d.R. 'Versorgungsamt') zu stellen. Weitere Auskünfte erteilt das zuständige Gesundheitsamt."
                    },
                    {
                        "text": "Starke Schwellung der Einstichstelle."
                    }
                ],
                "protocolApplied": [
                    {
                        "extension": [
                            {
                                "url": "https://fhir.kbv.de/StructureDefinition/KBV_EX_MIO_Vaccination_Follow_Up",
                                "valueDateTime": "2001-01-01T12:30:02Z"
                            }
                        ],
                        "targetDisease": [
                            {
                                "coding": [
                                    {
                                        "system": "http://snomed.info/sct",
                                        "version": "http://snomed.info/sct/900000000000207008/version/20200131",
                                        "code": "16541001",
                                        "display": "Yellow fewer (disorder)",
                                        "userSelected": true
                                    }
                                ],
                                "text": "Gelbfieber"
                            }
                        ],
                        "doseNumberString": "unknown"
                    }
                ]
            }
        },
        {
            "fullUrl": "Immunization/immuniz-29",
            "resource": {
                "resourceType": "Immunization",
                "id": "immuniz-29",
                "meta": {
                    "profile": [
                        "https://fhir.kbv.de/StructureDefinition/KBV_PR_MIO_Vaccination_Record_Prime|1.1.0"
                    ]
                },
                "text": {
                    "status": "extensions",
                    "div": "<h1>Vaccination Record Prime</h1>"
                },
                "extension": [
                    {
                        "url": "https://fhir.kbv.de/StructureDefinition/KBV_EX_MIO_Vaccination_Entry_Type",
                        "valueCodeableConcept": {
                            "coding": [
                                {
                                    "system": "https://fhir.kbv.de/CodeSystem/KBV_CS_MIO_Vaccination_Technical_Entry_Type",
                                    "code": "End",
                                    "display": "Eintrag nur digital"
                                }
                            ]
                        }
                    },
                    {
                        "url": "https://fhir.kbv.de/StructureDefinition/KBV_EX_MIO_Vaccination_Attester",
                        "extension": [
                            {
                                "url": "mode",
                                "valueCodeableConcept": {
                                    "coding": [
                                        {
                                            "system": "http://hl7.org/fhir/composition-attestation-mode",
                                            "code": "legal"
                                        }
                                    ]
                                }
                            },
                            {
                                "url": "party",
                                "valueReference": {
                                    "reference": "PractitionerRole/a24c9cd2-c55e-4859-8d41-db419fc9f6b1"
                                }
                            }
                        ]
                    },
                    {
                        "url": "https://fhir.kbv.de/StructureDefinition/KBV_EX_MIO_Vaccination_Enterer",
                        "extension": [
                            {
                                "url": "mode",
                                "valueCodeableConcept": {
                                    "coding": [
                                        {
                                            "system": "http://terminology.hl7.org/CodeSystem/v3-ParticipationType",
                                            "code": "ENT"
                                        }
                                    ]
                                }
                            },
                            {
                                "url": "party",
                                "valueReference": {
                                    "reference": "PractitionerRole/a24c9cd2-c55e-4859-8d41-db419fc9f6b1"
                                }
                            }
                        ]
                    }
                ],
                "status": "completed",
                "vaccineCode": {
                    "coding": [
                        {
                            "system": "http://snomed.info/sct",
                            "version": "http://snomed.info/sct/900000000000207008/version/20200131",
                            "code": "836385002",
                            "display": "Vaccine product containing Yellow fever virus antigen (medicinal product)"
                        },
                        {
                            "system": "http://fhir.de/CodeSystem/dimdi/atc",
                            "version": "atcgm20211",
                            "code": "J07BL",
                            "display": "Gelbfieber-Impfstoffe"
                        },
                        {
                            "system": "http://fhir.de/CodeSystem/ifa/pzn",
                            "code": "2528981",
                            "version": "pzn|1.0.000",
                            "display": "STAMARIL Trockensubstanz mit Lösungsmittel"
                        }
                    ],
                    "text": "Gelbfieberimpfstoff, STAMARIL Trockensubstanz mit Lösungsmittel"
                },
                "patient": {
                    "reference": "Patient/9774f67f-a238-4daf-b4e6-679deeef3811"
                },
                "occurrenceDateTime": "1992-07-16T12:30:02Z",
                "primarySource": true,
                "manufacturer": {
                    "display": "Beispiel-Pharm"
                },
                "lotNumber": "ABCD123419",
                "note": [
                    {
                        "text": "Bei einer ungewöhnlichen Impfreaktion sollte die impfende ärztliche Person benachrichtigt werden. Die ärztlich tätige Person hat, wenn der Verdacht einer gesundheitlichen Schädigung besteht, die über das übliche Ausmaß einer Impfreaktion hinaus geht verpflichtet, den Verdacht dem zuständigen Gesundheitsamt namentlich zu melden (§ 6 Absatz 1 Nr 3 des lnfektionsschutzgesetzes • lfSG) Im Falle eines Impfschadens besteht unter den Voraussetzungen des § 60 Absatz 1 lfSG ein Anspruch auf Entschädigung in entsprechender Anwendung der Vorschriften des Bundesversorgungsgesetzes. Der Antrag ist bei der für die Durchführung des Bundesversorgungsgesetzes zuständigen Behörde (§ 64 Absatz 1 lfSG, i.d.R. 'Versorgungsamt') zu stellen. Weitere Auskünfte erteilt das zuständige Gesundheitsamt."
                    },
                    {
                        "text": "Starke Schwellung der Einstichstelle."
                    }
                ],
                "protocolApplied": [
                    {
                        "extension": [
                            {
                                "url": "https://fhir.kbv.de/StructureDefinition/KBV_EX_MIO_Vaccination_Follow_Up",
                                "valueDateTime": "2001-01-01T12:30:02Z"
                            }
                        ],
                        "targetDisease": [
                            {
                                "coding": [
                                    {
                                        "system": "http://snomed.info/sct",
                                        "version": "http://snomed.info/sct/900000000000207008/version/20200131",
                                        "code": "16541001",
                                        "display": "Yellow fewer (disorder)",
                                        "userSelected": true
                                    }
                                ],
                                "text": "Gelbfieber"
                            }
                        ],
                        "doseNumberString": "unknown"
                    }
                ]
            }
        },
        {
            "fullUrl": "Patient/9774f67f-a238-4daf-b4e6-679deeef3811",
            "resource": {
                "resourceType": "Patient",
                "id": "9774f67f-a238-4daf-b4e6-679deeef3811",
                "meta": {
                    "profile": [
                        "https://fhir.kbv.de/StructureDefinition/KBV_PR_MIO_Vaccination_Patient|1.1.0"
                    ]
                },
                "text": {
                    "status": "generated",
                    "div": "<div xmlns=\"http://www.w3.org/1999/xhtml\"><p>Patient: Ludger Königsstein</p></div>"
                },
                "identifier": [
                    {
                        "type": {
                            "coding": [
                                {
                                    "system": "http://terminology.hl7.org/CodeSystem/v2-0203",
                                    "code": "MR"
                                }
                            ]
                        },
                        "system": "http://www.acme.com/identifiers/patient",
                        "value": "123456"
                    },
                    {
                        "type": {
                            "coding": [
                                {
                                    "system": "http://fhir.de/CodeSystem/identifier-type-de-basis",
                                    "code": "GKV"
                                }
                            ]
                        },
                        "system": "http://fhir.de/NamingSystem/gkv/kvid-10",
                        "value": "1234567890"
                    },
                    {
                        "type": {
                            "coding": [
                                {
                                    "system": "http://terminology.hl7.org/CodeSystem/v2-0203",
                                    "code": "PPN"
                                }
                            ]
                        },
                        "system": "http://www.acme.com/identifiers/patient",
                        "value": "C01X0006H"
                    }
                ],
                "name": [
                    {
                        "use": "official",
                        "text": "Ludger Königsstein",
                        "family": "Königsstein",
                        "_family": {
                            "extension": [
                                {
                                    "url": "http://hl7.org/fhir/StructureDefinition/humanname-own-name",
                                    "valueString": "Königsstein"
                                }
                            ]
                        },
                        "given": ["Ludger"]
                    }
                ],
                "gender": "männlich",
                "birthDate": "1935-06-22"
            }
        },
        {
            "fullUrl": "Practitioner/20597e0e-cb2a-45b3-95f0-dc3dbdb617c3",
            "resource": {
                "resourceType": "Practitioner",
                "id": "20597e0e-cb2a-45b3-95f0-dc3dbdb617c3",
                "meta": {
                    "profile": [
                        "https://fhir.kbv.de/StructureDefinition/KBV_PR_MIO_Vaccination_Practitioner|1.1.0"
                    ]
                },
                "identifier": [
                    {
                        "type": {
                            "coding": [
                                {
                                    "system": "http://terminology.hl7.org/CodeSystem/v2-0203",
                                    "code": "LANR"
                                }
                            ]
                        },
                        "system": "https://fhir.kbv.de/NamingSystem/KBV_NS_Base_ANR",
                        "value": "838382202"
                    }
                ],
                "name": [
                    {
                        "use": "official",
                        "family": "Topp-Glücklich",
                        "_family": {
                            "extension": [
                                {
                                    "url": "http://hl7.org/fhir/StructureDefinition/humanname-own-name",
                                    "valueString": "Topp-Glücklich"
                                }
                            ]
                        },
                        "given": ["Hans"],
                        "prefix": ["Dr. med."],
                        "_prefix": [
                            {
                                "extension": [
                                    {
                                        "url": "http://hl7.org/fhir/StructureDefinition/iso21090-EN-qualifier",
                                        "valueCode": "AC"
                                    }
                                ]
                            }
                        ]
                    }
                ],
                "telecom": [
                    {
                        "system": "phone",
                        "value": "06151/1111111"
                    }
                ],
                "qualification": [
                    {
                        "code": {
                            "coding": [
                                {
                                    "system": "https://fhir.kbv.de/CodeSystem/KBV_CS_SFHIR_BAR2_WBO",
                                    "code": "010",
                                    "display": "FA Allgemeinmedizin"
                                }
                            ],
                            "text": "FA Allgemeinmedizin"
                        }
                    }
                ]
            }
        },
        {
            "fullUrl": "Practitioner/0eecc686-434d-4b8a-9009-4242377e0db6",
            "resource": {
                "resourceType": "Practitioner",
                "id": "0eecc686-434d-4b8a-9009-4242377e0db6",
                "meta": {
                    "profile": [
                        "https://fhir.kbv.de/StructureDefinition/KBV_PR_MIO_Vaccination_Practitioner_Addendum|1.1.0"
                    ]
                },
                "name": [
                    {
                        "use": "official",
                        "family": "Bester",
                        "_family": {
                            "extension": [
                                {
                                    "url": "http://hl7.org/fhir/StructureDefinition/humanname-own-name",
                                    "valueString": "Bester"
                                }
                            ]
                        },
                        "given": ["Hartmut"],
                        "prefix": ["Dr. med."],
                        "_prefix": [
                            {
                                "extension": [
                                    {
                                        "url": "http://hl7.org/fhir/StructureDefinition/iso21090-EN-qualifier",
                                        "valueCode": "AC"
                                    }
                                ]
                            }
                        ]
                    }
                ],
                "qualification": [
                    {
                        "code": {
                            "coding": [
                                {
                                    "system": "https://fhir.kbv.de/CodeSystem/KBV_CS_SFHIR_BAR2_WBO",
                                    "code": "010",
                                    "display": "FA Allgemeinmedizin"
                                }
                            ],
                            "text": "FA Allgemeinmedizin"
                        }
                    }
                ]
            }
        },
        {
            "fullUrl": "PractitionerRole/a24c9cd2-c55e-4859-8d41-db419fc9f6b1",
            "resource": {
                "resourceType": "PractitionerRole",
                "id": "a24c9cd2-c55e-4859-8d41-db419fc9f6b1",
                "meta": {
                    "profile": [
                        "https://fhir.kbv.de/StructureDefinition/KBV_PR_MIO_Vaccination_Practitionerrole|1.1.0"
                    ]
                },
                "practitioner": {
                    "reference": "Practitioner/20597e0e-cb2a-45b3-95f0-dc3dbdb617c3"
                },
                "organization": {
                    "reference": "Organization/cf042e44-086a-4d51-9c77-172f9a972e3b"
                }
            }
        },
        {
            "fullUrl": "Organization/cf042e44-086a-4d51-9c77-172f9a972e3b",
            "resource": {
                "resourceType": "Organization",
                "id": "cf042e44-086a-4d51-9c77-172f9a972e3b",
                "meta": {
                    "profile": [
                        "https://fhir.kbv.de/StructureDefinition/KBV_PR_MIO_Vaccination_Organization|1.1.0"
                    ]
                },
                "name": "Dr. med. Hans Topp-Glücklich",
                "identifier": [
                    {
                        "type": {
                            "coding": [
                                {
                                    "system": "http://terminology.hl7.org/CodeSystem/v2-0203",
                                    "code": "BSNR"
                                }
                            ]
                        },
                        "system": "https://fhir.kbv.de/NamingSystem/KBV_NS_Base_BSNR",
                        "value": "654321"
                    }
                ],
                "address": [
                    {
                        "type": "both",
                        "line": ["Musterstr. 1"],
                        "_line": [
                            {
                                "extension": [
                                    {
                                        "url": "http://hl7.org/fhir/StructureDefinition/iso21090-ADXP-houseNumber",
                                        "valueString": "1"
                                    },
                                    {
                                        "url": "http://hl7.org/fhir/StructureDefinition/iso21090-ADXP-streetName",
                                        "valueString": "Musterstr."
                                    }
                                ]
                            }
                        ],
                        "city": "Darmstadt",
                        "postalCode": "64283",
                        "country": "D"
                    }
                ]
            }
        }
    ]
}
